Sub.Num,Tr.Num,cue_type,trial_type,experiment,m_prop_looking,RT,Response,Gender,CDIAge,VOCAB,ANIMALS,SOUND
23444,11,vocalization,disambiguation,experiment_2_retention,0.6102941176470589,1400,T,F,32,655,42,11
23444,12,vocalization,familiar,experiment_2_retention,0.3161764705882353,1100,D,F,32,655,42,11
23444,13,vocalization,disambiguation,experiment_2_retention,0.5547945205479452,2700,T,F,32,655,42,11
23444,14,vocalization,familiar,experiment_2_retention,0.5212765957446809,1233,A,F,32,655,42,11
23444,15,vocalization,disambiguation,experiment_2_retention,0.18181818181818182,767,D,F,32,655,42,11
23444,16,vocalization,familiar,experiment_2_retention,0.851063829787234,700,D,F,32,655,42,11
23444,17,vocalization,disambiguation,experiment_2_retention,0.2222222222222222,933,A,F,32,655,42,11
23444,18,vocalization,familiar,experiment_2_retention,0.46808510638297873,2e3,A,F,32,655,42,11
23444,2,vocalization,familiar,experiment_2_retention,0.4375,200,T,F,32,655,42,11
23444,21,vocalization,familiar,experiment_2_retention,0.8642857142857143,633,D,F,32,655,42,11
23444,22,vocalization,familiar,experiment_2_retention,0.25735294117647056,2100,D,F,32,655,42,11
23444,23,vocalization,retention,experiment_2_retention,0.7241379310344828,3500,T,F,32,655,42,11
23444,24,vocalization,familiar,experiment_2_retention,1,NA,T,F,32,655,42,11
23444,25,vocalization,retention,experiment_2_retention,0,NA,D,F,32,655,42,11
23444,29,vocalization,familiar,experiment_2_retention,0.8091603053435115,267,D,F,32,655,42,11
23444,3,vocalization,familiar,experiment_2_retention,0.5923076923076923,700,A,F,32,655,42,11
23444,34,vocalization,retention,experiment_2_retention,0.8455882352941176,700,D,F,32,655,42,11
23444,4,vocalization,familiar,experiment_2_retention,0.3488372093023256,1500,T,F,32,655,42,11
23444,5,vocalization,disambiguation,experiment_2_retention,0.8686131386861314,3967,T,F,32,655,42,11
23444,6,vocalization,familiar,experiment_2_retention,0.4642857142857143,367,T,F,32,655,42,11
23444,7,vocalization,disambiguation,experiment_2_retention,0.7557251908396947,133,T,F,32,655,42,11
23444,8,vocalization,familiar,experiment_2_retention,0.36283185840707965,1267,A,F,32,655,42,11
23444,9,vocalization,disambiguation,experiment_2_retention,1,NA,T,F,32,655,42,11
5278,11,vocalization,disambiguation,experiment_2_retention,0.6165413533834586,967,A,M,31,288,16,9
5278,12,vocalization,familiar,experiment_2_retention,0.08974358974358974,1167,A,M,31,288,16,9
5278,13,vocalization,disambiguation,experiment_2_retention,0.5476190476190477,633,A,M,31,288,16,9
5278,14,vocalization,familiar,experiment_2_retention,0.33858267716535434,1833,D,M,31,288,16,9
5278,15,vocalization,disambiguation,experiment_2_retention,1,NA,T,M,31,288,16,9
5278,16,vocalization,familiar,experiment_2_retention,0.10638297872340426,500,D,M,31,288,16,9
5278,17,vocalization,disambiguation,experiment_2_retention,0.6691176470588235,1500,T,M,31,288,16,9
5278,18,vocalization,familiar,experiment_2_retention,0.40217391304347827,33,T,M,31,288,16,9
5278,19,vocalization,disambiguation,experiment_2_retention,1,NA,T,M,31,288,16,9
5278,2,vocalization,familiar,experiment_2_retention,0.21379310344827587,1033,T,M,31,288,16,9
5278,21,vocalization,familiar,experiment_2_retention,0.49242424242424243,800,A,M,31,288,16,9
5278,22,vocalization,familiar,experiment_2_retention,0.5777777777777777,700,D,M,31,288,16,9
5278,23,vocalization,retention,experiment_2_retention,0.17777777777777778,3633,D,M,31,288,16,9
5278,24,vocalization,familiar,experiment_2_retention,0.732824427480916,3200,T,M,31,288,16,9
5278,25,vocalization,retention,experiment_2_retention,0.40625,2333,A,M,31,288,16,9
5278,26,vocalization,familiar,experiment_2_retention,0.6037735849056604,1200,A,M,31,288,16,9
5278,29,vocalization,familiar,experiment_2_retention,0.6976744186046512,433,D,M,31,288,16,9
5278,3,vocalization,familiar,experiment_2_retention,0.5474452554744526,467,D,M,31,288,16,9
5278,32,vocalization,retention,experiment_2_retention,0.5909090909090909,233,D,M,31,288,16,9
5278,33,vocalization,familiar,experiment_2_retention,0.7238805970149254,333,D,M,31,288,16,9
5278,34,vocalization,retention,experiment_2_retention,0.6194029850746269,500,T,M,31,288,16,9
5278,4,vocalization,familiar,experiment_2_retention,0.5675675675675675,500,A,M,31,288,16,9
5278,5,vocalization,disambiguation,experiment_2_retention,0.717741935483871,867,T,M,31,288,16,9
5278,6,vocalization,familiar,experiment_2_retention,0.5625,967,T,M,31,288,16,9
5278,7,vocalization,disambiguation,experiment_2_retention,0.7410071942446043,633,D,M,31,288,16,9
5278,8,vocalization,familiar,experiment_2_retention,0.8765432098765432,333,D,M,31,288,16,9
5278,9,vocalization,disambiguation,experiment_2_retention,0.7058823529411765,933,T,M,31,288,16,9
6478,17,vocalization,disambiguation,experiment_2_retention,0.35664335664335667,1433,A,M,31,593,43,12
6478,18,vocalization,familiar,experiment_2_retention,0.25,1600,D,M,31,593,43,12
6478,19,vocalization,disambiguation,experiment_2_retention,0.7062937062937062,667,T,M,31,593,43,12
6478,2,vocalization,familiar,experiment_2_retention,0.7925925925925926,67,D,M,31,593,43,12
6478,22,vocalization,familiar,experiment_2_retention,0.6936936936936937,1667,T,M,31,593,43,12
6478,23,vocalization,retention,experiment_2_retention,0.6412213740458015,1700,T,M,31,593,43,12
6478,24,vocalization,familiar,experiment_2_retention,0.8322147651006712,4133,T,M,31,593,43,12
6478,25,vocalization,retention,experiment_2_retention,0.27941176470588236,3233,D,M,31,593,43,12
6478,26,vocalization,familiar,experiment_2_retention,0.8770491803278688,500,D,M,31,593,43,12
6478,4,vocalization,familiar,experiment_2_retention,0.2033898305084746,567,D,M,31,593,43,12
6478,5,vocalization,disambiguation,experiment_2_retention,0.9083969465648855,2167,A,M,31,593,43,12
6478,6,vocalization,familiar,experiment_2_retention,0.7672413793103449,1533,T,M,31,593,43,12
6478,7,vocalization,disambiguation,experiment_2_retention,0.39855072463768115,1100,D,M,31,593,43,12
6478,8,vocalization,familiar,experiment_2_retention,1,NA,T,M,31,593,43,12
6478,9,vocalization,disambiguation,experiment_2_retention,0.48717948717948717,667,D,M,31,593,43,12
6612,10,onomatopoeic,familiar,experiment_1,0.26136363636363635,767,T,M,34,503,42,12
6612,10,onomatopoeic,familiar,experiment_1,0.26136363636363635,2633,T,M,34,503,42,12
6612,10,vocalization,disambiguation,experiment_1,0.5302013422818792,767,T,M,34,503,42,12
6612,10,vocalization,disambiguation,experiment_1,0.5302013422818792,2633,T,M,34,503,42,12
6612,11,vocalization,familiar,experiment_1,0.7972972972972973,1e3,D,M,34,503,42,12
6612,12,name,familiar,experiment_1,0.10185185185185185,367,T,M,34,503,42,12
6612,12,name,familiar,experiment_1,0.10185185185185185,1e3,D,M,34,503,42,12
6612,12,vocalization,disambiguation,experiment_1,0.5362318840579711,367,T,M,34,503,42,12
6612,12,vocalization,disambiguation,experiment_1,0.5362318840579711,1e3,D,M,34,503,42,12
6612,13,name,disambiguation,experiment_1,0.24299065420560748,967,A,M,34,503,42,12
6612,14,name,familiar,experiment_1,0.10869565217391304,3300,D,M,34,503,42,12
6612,15,name,disambiguation,experiment_1,0.3673469387755102,567,T,M,34,503,42,12
6612,16,vocalization,disambiguation,experiment_1,0.5916666666666667,2533,A,M,34,503,42,12
6612,17,onomatopoeic,familiar,experiment_1,0.2727272727272727,2667,D,M,34,503,42,12
6612,18,onomatopoeic,familiar,experiment_1,0.4146341463414634,1667,D,M,34,503,42,12
6612,18,onomatopoeic,familiar,experiment_1,0.4146341463414634,1133,T,M,34,503,42,12
6612,18,vocalization,familiar,experiment_1,0.896551724137931,1667,D,M,34,503,42,12
6612,18,vocalization,familiar,experiment_1,0.896551724137931,1133,T,M,34,503,42,12
6612,19,onomatopoeic,familiar,experiment_1,0.5111111111111111,1033,D,M,34,503,42,12
6612,19,onomatopoeic,familiar,experiment_1,0.5111111111111111,733,T,M,34,503,42,12
6612,19,vocalization,disambiguation,experiment_1,0.39416058394160586,1033,D,M,34,503,42,12
6612,19,vocalization,disambiguation,experiment_1,0.39416058394160586,733,T,M,34,503,42,12
6612,2,name,familiar,experiment_1,0.11475409836065574,167,D,M,34,503,42,12
6612,2,name,familiar,experiment_1,0.11475409836065574,767,D,M,34,503,42,12
6612,2,vocalization,familiar,experiment_1,0.5135135135135135,167,D,M,34,503,42,12
6612,2,vocalization,familiar,experiment_1,0.5135135135135135,767,D,M,34,503,42,12
6612,20,onomatopoeic,familiar,experiment_1,0.17307692307692307,1167,A,M,34,503,42,12
6612,20,onomatopoeic,familiar,experiment_1,0.17307692307692307,767,T,M,34,503,42,12
6612,20,vocalization,familiar,experiment_1,0.7959183673469388,1167,A,M,34,503,42,12
6612,20,vocalization,familiar,experiment_1,0.7959183673469388,767,T,M,34,503,42,12
6612,21,vocalization,familiar,experiment_1,0.7123287671232876,1400,D,M,34,503,42,12
6612,22,name,disambiguation,experiment_1,0.22727272727272727,367,T,M,34,503,42,12
6612,23,name,familiar,experiment_1,0.7295081967213115,967,T,M,34,503,42,12
6612,23,name,familiar,experiment_1,0.7295081967213115,267,T,M,34,503,42,12
6612,23,vocalization,familiar,experiment_1,0.84,967,T,M,34,503,42,12
6612,23,vocalization,familiar,experiment_1,0.84,267,T,M,34,503,42,12
6612,24,name,disambiguation,experiment_1,0.23636363636363636,867,T,M,34,503,42,12
6612,24,name,disambiguation,experiment_1,0.23636363636363636,NA,T,M,34,503,42,12
6612,24,vocalization,disambiguation,experiment_1,1,867,T,M,34,503,42,12
6612,24,vocalization,disambiguation,experiment_1,1,NA,T,M,34,503,42,12
6612,25,name,familiar,experiment_1,0.29850746268656714,467,T,M,34,503,42,12
6612,25,name,familiar,experiment_1,0.29850746268656714,333,D,M,34,503,42,12
6612,25,vocalization,familiar,experiment_1,0.9328859060402684,467,T,M,34,503,42,12
6612,25,vocalization,familiar,experiment_1,0.9328859060402684,333,D,M,34,503,42,12
6612,26,vocalization,familiar,experiment_1,0.3986013986013986,367,T,M,34,503,42,12
6612,27,vocalization,disambiguation,experiment_1,0.7454545454545455,733,D,M,34,503,42,12
6612,3,name,familiar,experiment_1,0.625,900,D,M,34,503,42,12
6612,3,name,familiar,experiment_1,0.625,400,T,M,34,503,42,12
6612,3,vocalization,familiar,experiment_1,0.6142857142857143,900,D,M,34,503,42,12
6612,3,vocalization,familiar,experiment_1,0.6142857142857143,400,T,M,34,503,42,12
6612,4,name,familiar,experiment_1,0.6170212765957447,33,D,M,34,503,42,12
6612,4,name,familiar,experiment_1,0.6170212765957447,1533,D,M,34,503,42,12
6612,4,vocalization,disambiguation,experiment_1,0.5964912280701754,33,D,M,34,503,42,12
6612,4,vocalization,disambiguation,experiment_1,0.5964912280701754,1533,D,M,34,503,42,12
6612,5,name,familiar,experiment_1,0.08256880733944955,300,T,M,34,503,42,12
6612,5,name,familiar,experiment_1,0.08256880733944955,367,T,M,34,503,42,12
6612,5,vocalization,familiar,experiment_1,0.5642857142857143,300,T,M,34,503,42,12
6612,5,vocalization,familiar,experiment_1,0.5642857142857143,367,T,M,34,503,42,12
6612,6,vocalization,familiar,experiment_1,0.6923076923076923,2200,T,M,34,503,42,12
6612,7,onomatopoeic,familiar,experiment_1,0.26666666666666666,633,A,M,34,503,42,12
6612,7,onomatopoeic,familiar,experiment_1,0.26666666666666666,200,D,M,34,503,42,12
6612,7,vocalization,disambiguation,experiment_1,0.8541666666666666,633,A,M,34,503,42,12
6612,7,vocalization,disambiguation,experiment_1,0.8541666666666666,200,D,M,34,503,42,12
6612,8,onomatopoeic,familiar,experiment_1,0.10810810810810811,400,T,M,34,503,42,12
6612,9,onomatopoeic,familiar,experiment_1,0.1348314606741573,400,T,M,34,503,42,12
6612,9,onomatopoeic,familiar,experiment_1,0.1348314606741573,1500,T,M,34,503,42,12
6612,9,vocalization,familiar,experiment_1,0.5045045045045045,400,T,M,34,503,42,12
6612,9,vocalization,familiar,experiment_1,0.5045045045045045,1500,T,M,34,503,42,12
6685,11,vocalization,disambiguation,experiment_2_retention,0.5620437956204379,700,T,M,30,506,32,10
6685,12,vocalization,familiar,experiment_2_retention,1,NA,T,M,30,506,32,10
6685,13,vocalization,disambiguation,experiment_2_retention,0.6330935251798561,2333,T,M,30,506,32,10
6685,14,vocalization,familiar,experiment_2_retention,0.7194244604316546,1333,T,M,30,506,32,10
6685,15,vocalization,disambiguation,experiment_2_retention,1,NA,T,M,30,506,32,10
6685,16,vocalization,familiar,experiment_2_retention,0.4793388429752066,300,D,M,30,506,32,10
6685,17,vocalization,disambiguation,experiment_2_retention,0,NA,D,M,30,506,32,10
6685,18,vocalization,familiar,experiment_2_retention,0,NA,D,M,30,506,32,10
6685,19,vocalization,disambiguation,experiment_2_retention,0.9444444444444444,1e3,T,M,30,506,32,10
6685,2,vocalization,familiar,experiment_2_retention,0.23741007194244604,733,T,M,30,506,32,10
6685,21,vocalization,familiar,experiment_2_retention,0.7647058823529411,400,D,M,30,506,32,10
6685,22,vocalization,familiar,experiment_2_retention,0.32575757575757575,1767,D,M,30,506,32,10
6685,23,vocalization,retention,experiment_2_retention,1,NA,T,M,30,506,32,10
6685,24,vocalization,familiar,experiment_2_retention,0,NA,D,M,30,506,32,10
6685,25,vocalization,retention,experiment_2_retention,0.22388059701492538,2067,D,M,30,506,32,10
6685,26,vocalization,familiar,experiment_2_retention,0.6929133858267716,2400,T,M,30,506,32,10
6685,27,vocalization,retention,experiment_2_retention,0.5867768595041323,2100,D,M,30,506,32,10
6685,29,vocalization,familiar,experiment_2_retention,0.23703703703703705,1833,D,M,30,506,32,10
6685,3,vocalization,familiar,experiment_2_retention,0.8043478260869565,33,T,M,30,506,32,10
6685,30,vocalization,retention,experiment_2_retention,0.9142857142857143,400,D,M,30,506,32,10
6685,31,vocalization,familiar,experiment_2_retention,1,NA,T,M,30,506,32,10
6685,32,vocalization,retention,experiment_2_retention,0.2079207920792079,2667,D,M,30,506,32,10
6685,33,vocalization,familiar,experiment_2_retention,0.625,900,T,M,30,506,32,10
6685,34,vocalization,retention,experiment_2_retention,0.7969924812030075,900,D,M,30,506,32,10
6685,4,vocalization,familiar,experiment_2_retention,0.625,1700,D,M,30,506,32,10
6685,5,vocalization,disambiguation,experiment_2_retention,0.7578125,300,D,M,30,506,32,10
6685,6,vocalization,familiar,experiment_2_retention,0.6590909090909091,1133,T,M,30,506,32,10
6685,7,vocalization,disambiguation,experiment_2_retention,0.75,1133,T,M,30,506,32,10
6685,8,vocalization,familiar,experiment_2_retention,0.5714285714285714,2400,T,M,30,506,32,10
6685,9,vocalization,disambiguation,experiment_2_retention,0.6397058823529411,467,D,M,30,506,32,10
6763,11,vocalization,disambiguation,experiment_2_retention,0,NA,D,F,31,349,31,10
6763,12,vocalization,familiar,experiment_2_retention,0.4782608695652174,1267,T,F,31,349,31,10
6763,13,vocalization,disambiguation,experiment_2_retention,0.625,767,T,F,31,349,31,10
6763,14,vocalization,familiar,experiment_2_retention,1,NA,T,F,31,349,31,10
6763,15,vocalization,disambiguation,experiment_2_retention,0.3333333333333333,1633,T,F,31,349,31,10
6763,16,vocalization,familiar,experiment_2_retention,0.4609375,967,T,F,31,349,31,10
6763,18,vocalization,familiar,experiment_2_retention,0.45454545454545453,3100,A,F,31,349,31,10
6763,19,vocalization,disambiguation,experiment_2_retention,0.3203125,67,T,F,31,349,31,10
6763,2,vocalization,familiar,experiment_2_retention,0.2808219178082192,1367,T,F,31,349,31,10
6763,21,vocalization,familiar,experiment_2_retention,0.8026315789473685,1100,T,F,31,349,31,10
6763,22,vocalization,familiar,experiment_2_retention,0.14814814814814814,1167,A,F,31,349,31,10
6763,23,vocalization,retention,experiment_2_retention,1,NA,T,F,31,349,31,10
6763,24,vocalization,familiar,experiment_2_retention,1,NA,T,F,31,349,31,10
6763,25,vocalization,retention,experiment_2_retention,0.1592920353982301,1900,D,F,31,349,31,10
6763,26,vocalization,familiar,experiment_2_retention,0.5076923076923077,2133,D,F,31,349,31,10
6763,27,vocalization,retention,experiment_2_retention,0.9931506849315068,4833,T,F,31,349,31,10
6763,29,vocalization,familiar,experiment_2_retention,0.4084507042253521,667,D,F,31,349,31,10
6763,3,vocalization,familiar,experiment_2_retention,0.6466165413533834,533,D,F,31,349,31,10
6763,30,vocalization,retention,experiment_2_retention,0.75,1067,D,F,31,349,31,10
6763,31,vocalization,familiar,experiment_2_retention,1,NA,T,F,31,349,31,10
6763,32,vocalization,retention,experiment_2_retention,0.4931506849315068,2400,T,F,31,349,31,10
6763,33,vocalization,familiar,experiment_2_retention,0.9186991869918699,3767,T,F,31,349,31,10
6763,34,vocalization,retention,experiment_2_retention,0.8043478260869565,867,T,F,31,349,31,10
6763,4,vocalization,familiar,experiment_2_retention,0.381294964028777,1100,T,F,31,349,31,10
6763,5,vocalization,disambiguation,experiment_2_retention,0.36428571428571427,733,T,F,31,349,31,10
6763,6,vocalization,familiar,experiment_2_retention,0.6620689655172414,1333,T,F,31,349,31,10
6763,7,vocalization,disambiguation,experiment_2_retention,0.31654676258992803,3167,D,F,31,349,31,10
6763,8,vocalization,familiar,experiment_2_retention,0,NA,D,F,31,349,31,10
6763,9,vocalization,disambiguation,experiment_2_retention,0.5,1967,D,F,31,349,31,10
6800,11,vocalization,disambiguation,experiment_2_retention,0.3986013986013986,1933,D,F,31,290,34,10
6800,12,vocalization,familiar,experiment_2_retention,0.8461538461538461,4333,T,F,31,290,34,10
6800,13,vocalization,disambiguation,experiment_2_retention,0.6940298507462687,1633,T,F,31,290,34,10
6800,14,vocalization,familiar,experiment_2_retention,0.49586776859504134,2767,A,F,31,290,34,10
6800,15,vocalization,disambiguation,experiment_2_retention,0.1037037037037037,1833,D,F,31,290,34,10
6800,16,vocalization,familiar,experiment_2_retention,0.5510204081632653,833,A,F,31,290,34,10
6800,17,vocalization,disambiguation,experiment_2_retention,0.5467625899280576,700,T,F,31,290,34,10
6800,2,vocalization,familiar,experiment_2_retention,0.3333333333333333,400,D,F,31,290,34,10
6800,21,vocalization,familiar,experiment_2_retention,0.7341772151898734,700,D,F,31,290,34,10
6800,22,vocalization,familiar,experiment_2_retention,0.3977272727272727,2700,T,F,31,290,34,10
6800,23,vocalization,retention,experiment_2_retention,0.5857142857142857,1133,A,F,31,290,34,10
6800,25,vocalization,retention,experiment_2_retention,0.38,1700,A,F,31,290,34,10
6800,26,vocalization,familiar,experiment_2_retention,0.648,1300,A,F,31,290,34,10
6800,27,vocalization,retention,experiment_2_retention,0.13953488372093023,2767,D,F,31,290,34,10
6800,29,vocalization,familiar,experiment_2_retention,0.3137254901960784,1300,D,F,31,290,34,10
6800,3,vocalization,familiar,experiment_2_retention,0.33093525179856115,1533,T,F,31,290,34,10
6800,4,vocalization,familiar,experiment_2_retention,0.07913669064748201,4267,D,F,31,290,34,10
6800,5,vocalization,disambiguation,experiment_2_retention,0.4253731343283582,167,T,F,31,290,34,10
6800,6,vocalization,familiar,experiment_2_retention,0.7323943661971831,100,D,F,31,290,34,10
6800,7,vocalization,disambiguation,experiment_2_retention,0.8620689655172413,400,T,F,31,290,34,10
6800,8,vocalization,familiar,experiment_2_retention,0.7364341085271318,300,D,F,31,290,34,10
6816,11,vocalization,disambiguation,experiment_2_retention,0.8028169014084507,3800,T,M,31,581,29,10
6816,12,vocalization,familiar,experiment_2_retention,0.7883211678832117,1367,T,M,31,581,29,10
6816,13,vocalization,disambiguation,experiment_2_retention,0.7439024390243902,700,D,M,31,581,29,10
6816,14,vocalization,familiar,experiment_2_retention,0.8195488721804511,1467,A,M,31,581,29,10
6816,15,vocalization,disambiguation,experiment_2_retention,0.10218978102189781,4100,D,M,31,581,29,10
6816,16,vocalization,familiar,experiment_2_retention,0.7034482758620689,1433,D,M,31,581,29,10
6816,17,vocalization,disambiguation,experiment_2_retention,0.47183098591549294,1133,T,M,31,581,29,10
6816,18,vocalization,familiar,experiment_2_retention,0.675,533,T,M,31,581,29,10
6816,19,vocalization,disambiguation,experiment_2_retention,0.7142857142857143,733,D,M,31,581,29,10
6816,2,vocalization,familiar,experiment_2_retention,0.7816901408450704,3700,T,M,31,581,29,10
6816,21,vocalization,familiar,experiment_2_retention,0.43243243243243246,1900,A,M,31,581,29,10
6816,22,vocalization,familiar,experiment_2_retention,0.8201438848920863,833,D,M,31,581,29,10
6816,23,vocalization,retention,experiment_2_retention,0.7956204379562044,1867,T,M,31,581,29,10
6816,24,vocalization,familiar,experiment_2_retention,0.8571428571428571,1733,T,M,31,581,29,10
6816,25,vocalization,retention,experiment_2_retention,0.5244755244755245,1400,D,M,31,581,29,10
6816,26,vocalization,familiar,experiment_2_retention,1,NA,A,M,31,581,29,10
6816,27,vocalization,retention,experiment_2_retention,0.6764705882352942,600,T,M,31,581,29,10
6816,3,vocalization,familiar,experiment_2_retention,0.8633093525179856,633,D,M,31,581,29,10
6816,30,vocalization,retention,experiment_2_retention,0.8494623655913979,467,D,M,31,581,29,10
6816,31,vocalization,familiar,experiment_2_retention,0.6827586206896552,3300,T,M,31,581,29,10
6816,32,vocalization,retention,experiment_2_retention,0.660377358490566,1600,T,M,31,581,29,10
6816,34,vocalization,retention,experiment_2_retention,0.2624113475177305,2200,D,M,31,581,29,10
6816,4,vocalization,familiar,experiment_2_retention,0.5895522388059702,1e3,A,M,31,581,29,10
6816,5,vocalization,disambiguation,experiment_2_retention,0.7279411764705882,3367,A,M,31,581,29,10
6816,6,vocalization,familiar,experiment_2_retention,0.891156462585034,533,D,M,31,581,29,10
6816,7,vocalization,disambiguation,experiment_2_retention,0.7724137931034483,1100,D,M,31,581,29,10
6816,8,vocalization,familiar,experiment_2_retention,0.8321167883211679,967,T,M,31,581,29,10
6816,9,vocalization,disambiguation,experiment_2_retention,0.8888888888888888,133,T,M,31,581,29,10
6829,12,vocalization,familiar,experiment_2_retention,0.4318181818181818,1200,T,M,32,269,21,7
6829,13,vocalization,disambiguation,experiment_2_retention,0.7651515151515151,1367,T,M,32,269,21,7
6829,14,vocalization,familiar,experiment_2_retention,0.5401459854014599,467,T,M,32,269,21,7
6829,16,vocalization,familiar,experiment_2_retention,0.6410256410256411,1033,A,M,32,269,21,7
6829,18,vocalization,familiar,experiment_2_retention,0.9154929577464789,367,T,M,32,269,21,7
6829,19,vocalization,disambiguation,experiment_2_retention,0.8680555555555556,700,A,M,32,269,21,7
6829,2,vocalization,familiar,experiment_2_retention,0.18705035971223022,1700,D,M,32,269,21,7
6829,25,vocalization,retention,experiment_2_retention,0.5619834710743802,1e3,D,M,32,269,21,7
6829,29,vocalization,familiar,experiment_2_retention,0.6343283582089553,667,D,M,32,269,21,7
6829,3,vocalization,familiar,experiment_2_retention,1,NA,T,M,32,269,21,7
6829,30,vocalization,retention,experiment_2_retention,0.9428571428571428,33,D,M,32,269,21,7
6829,4,vocalization,familiar,experiment_2_retention,0,NA,D,M,32,269,21,7
6829,5,vocalization,disambiguation,experiment_2_retention,0.6444444444444445,500,D,M,32,269,21,7
6829,6,vocalization,familiar,experiment_2_retention,0.7614678899082569,1033,A,M,32,269,21,7
6829,7,vocalization,disambiguation,experiment_2_retention,0.9150943396226415,1167,A,M,32,269,21,7
6829,9,vocalization,disambiguation,experiment_2_retention,0.7758620689655172,1567,A,M,32,269,21,7
6835,10,vocalization,disambiguation,experiment_2_retention,0.725,1100,D,NA,NA,NA,NA,NA
6835,11,vocalization,familiar,experiment_2_retention,0.7283236994219653,1567,D,NA,NA,NA,NA,NA
6835,13,vocalization,familiar,experiment_2_retention,0.46923076923076923,3033,A,NA,NA,NA,NA,NA
6835,14,vocalization,disambiguation,experiment_2_retention,0.8072289156626506,1067,D,NA,NA,NA,NA,NA
6835,16,vocalization,disambiguation,experiment_2_retention,0.6823529411764706,933,A,NA,NA,NA,NA,NA
6835,20,vocalization,disambiguation,experiment_2_retention,0.845679012345679,267,T,NA,NA,NA,NA,NA
6835,34,vocalization,familiar,experiment_2_retention,0.5925925925925926,733,D,NA,NA,NA,NA,NA
6835,35,vocalization,retention,experiment_2_retention,0.30578512396694213,3e3,A,NA,NA,NA,NA,NA
6835,36,vocalization,familiar,experiment_2_retention,0.8671875,867,T,NA,NA,NA,NA,NA
6835,37,vocalization,retention,experiment_2_retention,0.4830508474576271,2733,A,NA,NA,NA,NA,NA
6835,39,vocalization,retention,experiment_2_retention,0.5588235294117647,3300,A,NA,NA,NA,NA,NA
6835,7,vocalization,familiar,experiment_2_retention,0.33962264150943394,933,A,NA,NA,NA,NA,NA
6835,8,vocalization,familiar,experiment_2_retention,0.34810126582278483,1233,T,NA,NA,NA,NA,NA
6835,9,vocalization,familiar,experiment_2_retention,0.38271604938271603,233,D,NA,NA,NA,NA,NA
6851,12,vocalization,familiar,experiment_2_retention,1,NA,T,F,30,547,31,12
6851,13,vocalization,disambiguation,experiment_2_retention,0.6341463414634146,700,T,F,30,547,31,12
6851,15,vocalization,disambiguation,experiment_2_retention,0.7676056338028169,1233,A,F,30,547,31,12
6851,16,vocalization,familiar,experiment_2_retention,1,NA,T,F,30,547,31,12
6851,18,vocalization,familiar,experiment_2_retention,0.9230769230769231,833,A,F,30,547,31,12
6851,19,vocalization,disambiguation,experiment_2_retention,0.8461538461538461,1133,T,F,30,547,31,12
6851,2,vocalization,familiar,experiment_2_retention,0.1875,3900,D,F,30,547,31,12
6851,21,vocalization,familiar,experiment_2_retention,0.603448275862069,233,D,F,30,547,31,12
6851,22,vocalization,familiar,experiment_2_retention,1,NA,T,F,30,547,31,12
6851,23,vocalization,retention,experiment_2_retention,0.3387096774193548,1400,A,F,30,547,31,12
6851,24,vocalization,familiar,experiment_2_retention,0.5616438356164384,2733,T,F,30,547,31,12
6851,25,vocalization,retention,experiment_2_retention,0.7883211678832117,1e3,A,F,30,547,31,12
6851,26,vocalization,familiar,experiment_2_retention,0.5895522388059702,400,D,F,30,547,31,12
6851,27,vocalization,retention,experiment_2_retention,0.8541666666666666,700,D,F,30,547,31,12
6851,3,vocalization,familiar,experiment_2_retention,0.7226890756302521,1733,T,F,30,547,31,12
6851,30,vocalization,retention,experiment_2_retention,0.22330097087378642,1333,A,F,30,547,31,12
6851,31,vocalization,familiar,experiment_2_retention,0.5971223021582733,600,D,F,30,547,31,12
6851,32,vocalization,retention,experiment_2_retention,0.25,1e3,D,F,30,547,31,12
6851,33,vocalization,familiar,experiment_2_retention,0.8846153846153846,667,A,F,30,547,31,12
6851,34,vocalization,retention,experiment_2_retention,0.8860759493670886,300,D,F,30,547,31,12
6851,4,vocalization,familiar,experiment_2_retention,0.9640287769784173,167,D,F,30,547,31,12
6851,5,vocalization,disambiguation,experiment_2_retention,0.6328125,133,D,F,30,547,31,12
6851,6,vocalization,familiar,experiment_2_retention,0.775,500,D,F,30,547,31,12
6851,7,vocalization,disambiguation,experiment_2_retention,0.7611940298507462,667,D,F,30,547,31,12
6851,8,vocalization,familiar,experiment_2_retention,1,NA,T,F,30,547,31,12
6854,11,vocalization,disambiguation,experiment_2_retention,1,NA,T,F,31,548,36,10
6854,12,vocalization,familiar,experiment_2_retention,0.40540540540540543,1667,A,F,31,548,36,10
6854,13,vocalization,disambiguation,experiment_2_retention,0.5547945205479452,2167,D,F,31,548,36,10
6854,14,vocalization,familiar,experiment_2_retention,0.7465753424657534,1233,D,F,31,548,36,10
6854,15,vocalization,disambiguation,experiment_2_retention,0.7397260273972602,1267,D,F,31,548,36,10
6854,16,vocalization,familiar,experiment_2_retention,0.9041095890410958,4400,T,F,31,548,36,10
6854,17,vocalization,disambiguation,experiment_2_retention,0.5526315789473685,2e3,A,F,31,548,36,10
6854,18,vocalization,familiar,experiment_2_retention,0.6014492753623188,1467,D,F,31,548,36,10
6854,19,vocalization,disambiguation,experiment_2_retention,0.7011494252873564,1933,T,F,31,548,36,10
6854,2,vocalization,familiar,experiment_2_retention,0.5915492957746479,1767,T,F,31,548,36,10
6854,21,vocalization,familiar,experiment_2_retention,0.5488721804511278,33,T,F,31,548,36,10
6854,22,vocalization,familiar,experiment_2_retention,0.7894736842105263,33,T,F,31,548,36,10
6854,23,vocalization,retention,experiment_2_retention,0.3076923076923077,1867,D,F,31,548,36,10
6854,24,vocalization,familiar,experiment_2_retention,0.3780487804878049,1700,D,F,31,548,36,10
6854,25,vocalization,retention,experiment_2_retention,0.4892086330935252,2267,T,F,31,548,36,10
6854,26,vocalization,familiar,experiment_2_retention,0.27611940298507465,500,T,F,31,548,36,10
6854,27,vocalization,retention,experiment_2_retention,1,NA,T,F,31,548,36,10
6854,29,vocalization,familiar,experiment_2_retention,0.8809523809523809,533,T,F,31,548,36,10
6854,3,vocalization,familiar,experiment_2_retention,0.6842105263157895,100,D,F,31,548,36,10
6854,30,vocalization,retention,experiment_2_retention,0,NA,D,F,31,548,36,10
6854,31,vocalization,familiar,experiment_2_retention,0.75,633,D,F,31,548,36,10
6854,32,vocalization,retention,experiment_2_retention,1,NA,T,F,31,548,36,10
6854,33,vocalization,familiar,experiment_2_retention,0.5944055944055944,1133,T,F,31,548,36,10
6854,34,vocalization,retention,experiment_2_retention,0.10526315789473684,200,T,F,31,548,36,10
6854,4,vocalization,familiar,experiment_2_retention,1,NA,A,F,31,548,36,10
6854,5,vocalization,disambiguation,experiment_2_retention,1,NA,T,F,31,548,36,10
6854,6,vocalization,familiar,experiment_2_retention,0.5138888888888888,1267,D,F,31,548,36,10
6854,7,vocalization,disambiguation,experiment_2_retention,0.03597122302158273,4467,D,F,31,548,36,10
6854,8,vocalization,familiar,experiment_2_retention,0.5147058823529411,933,D,F,31,548,36,10
6854,9,vocalization,disambiguation,experiment_2_retention,1,NA,T,F,31,548,36,10
6858,11,vocalization,disambiguation,experiment_2_retention,0.3082191780821918,1500,T,M,31,551,37,12
6858,12,vocalization,familiar,experiment_2_retention,0.7,3267,T,M,31,551,37,12
6858,13,vocalization,disambiguation,experiment_2_retention,0.4961832061068702,1667,T,M,31,551,37,12
6858,14,vocalization,familiar,experiment_2_retention,0.5379310344827586,2233,D,M,31,551,37,12
6858,15,vocalization,disambiguation,experiment_2_retention,0.46551724137931033,333,D,M,31,551,37,12
6858,16,vocalization,familiar,experiment_2_retention,0.697841726618705,100,D,M,31,551,37,12
6858,17,vocalization,disambiguation,experiment_2_retention,0.18493150684931506,900,T,M,31,551,37,12
6858,18,vocalization,familiar,experiment_2_retention,0.8134328358208955,700,D,M,31,551,37,12
6858,19,vocalization,disambiguation,experiment_2_retention,1,NA,T,M,31,551,37,12
6858,2,vocalization,familiar,experiment_2_retention,0.4726027397260274,2300,T,M,31,551,37,12
6858,21,vocalization,familiar,experiment_2_retention,0.3805970149253731,533,D,M,31,551,37,12
6858,22,vocalization,familiar,experiment_2_retention,0.6285714285714286,2933,T,M,31,551,37,12
6858,23,vocalization,retention,experiment_2_retention,0.7777777777777778,733,T,M,31,551,37,12
6858,24,vocalization,familiar,experiment_2_retention,0.6595744680851063,367,D,M,31,551,37,12
6858,25,vocalization,retention,experiment_2_retention,0.7372262773722628,533,D,M,31,551,37,12
6858,26,vocalization,familiar,experiment_2_retention,0.8818181818181818,200,D,M,31,551,37,12
6858,29,vocalization,familiar,experiment_2_retention,0.22627737226277372,1667,D,M,31,551,37,12
6858,3,vocalization,familiar,experiment_2_retention,0.4357142857142857,2033,T,M,31,551,37,12
6858,30,vocalization,retention,experiment_2_retention,1,NA,T,M,31,551,37,12
6858,32,vocalization,retention,experiment_2_retention,0,NA,D,M,31,551,37,12
6858,33,vocalization,familiar,experiment_2_retention,1,NA,T,M,31,551,37,12
6858,34,vocalization,retention,experiment_2_retention,0.0547945205479452,4600,D,M,31,551,37,12
6858,4,vocalization,familiar,experiment_2_retention,0.6762589928057554,1500,D,M,31,551,37,12
6858,5,vocalization,disambiguation,experiment_2_retention,0.935251798561151,300,D,M,31,551,37,12
6858,6,vocalization,familiar,experiment_2_retention,0,NA,A,M,31,551,37,12
6858,7,vocalization,disambiguation,experiment_2_retention,0.8741258741258742,833,T,M,31,551,37,12
6858,8,vocalization,familiar,experiment_2_retention,0.8611111111111112,500,D,M,31,551,37,12
6858,9,vocalization,disambiguation,experiment_2_retention,0.7615384615384615,133,T,M,31,551,37,12
6893,12,vocalization,familiar,experiment_2_retention,0.4307692307692308,1167,T,F,30,532,43,10
6893,13,vocalization,disambiguation,experiment_2_retention,0.696969696969697,933,T,F,30,532,43,10
6893,14,vocalization,familiar,experiment_2_retention,0.6737588652482269,1567,T,F,30,532,43,10
6893,15,vocalization,disambiguation,experiment_2_retention,0.23529411764705882,3467,D,F,30,532,43,10
6893,16,vocalization,familiar,experiment_2_retention,0.6827586206896552,3300,T,F,30,532,43,10
6893,17,vocalization,disambiguation,experiment_2_retention,0.6666666666666666,333,D,F,30,532,43,10
6893,2,vocalization,familiar,experiment_2_retention,0.6762589928057554,1167,D,F,30,532,43,10
6893,22,vocalization,familiar,experiment_2_retention,0.6530612244897959,1467,A,F,30,532,43,10
6893,23,vocalization,retention,experiment_2_retention,0.20454545454545456,1700,D,F,30,532,43,10
6893,24,vocalization,familiar,experiment_2_retention,0.6541353383458647,1133,T,F,30,532,43,10
6893,25,vocalization,retention,experiment_2_retention,0.5343511450381679,1300,D,F,30,532,43,10
6893,27,vocalization,retention,experiment_2_retention,0.41134751773049644,1467,T,F,30,532,43,10
6893,29,vocalization,familiar,experiment_2_retention,0.8208955223880597,2100,T,F,30,532,43,10
6893,3,vocalization,familiar,experiment_2_retention,0.8214285714285714,833,D,F,30,532,43,10
6893,30,vocalization,retention,experiment_2_retention,0.24603174603174602,1800,D,F,30,532,43,10
6893,34,vocalization,retention,experiment_2_retention,0,NA,D,F,30,532,43,10
6893,4,vocalization,familiar,experiment_2_retention,0.4552238805970149,700,D,F,30,532,43,10
6893,5,vocalization,disambiguation,experiment_2_retention,0.6267605633802817,2033,T,F,30,532,43,10
6893,6,vocalization,familiar,experiment_2_retention,0.5177304964539007,2100,D,F,30,532,43,10
6893,7,vocalization,disambiguation,experiment_2_retention,0.7252747252747253,1100,A,F,30,532,43,10
6893,9,vocalization,disambiguation,experiment_2_retention,0.8425925925925926,367,T,F,30,532,43,10
6896,10,vocalization,disambiguation,experiment_2_retention,0.2732919254658385,567,D,F,30,376,28,8
6896,11,vocalization,familiar,experiment_2_retention,0.5209580838323353,867,T,F,30,376,28,8
6896,12,vocalization,disambiguation,experiment_2_retention,0.4161490683229814,633,D,F,30,376,28,8
6896,13,vocalization,familiar,experiment_2_retention,0.8548387096774194,3967,T,F,30,376,28,8
6896,14,vocalization,disambiguation,experiment_2_retention,0.30303030303030304,1200,D,F,30,376,28,8
6896,16,vocalization,disambiguation,experiment_2_retention,0.5729166666666666,1733,A,F,30,376,28,8
6896,17,vocalization,familiar,experiment_2_retention,0.7523809523809524,2133,T,F,30,376,28,8
6896,19,vocalization,familiar,experiment_2_retention,0.6412213740458015,1633,T,F,30,376,28,8
6896,20,vocalization,disambiguation,experiment_2_retention,0.35664335664335667,1167,T,F,30,376,28,8
6896,22,vocalization,disambiguation,experiment_2_retention,0.7058823529411765,900,A,F,30,376,28,8
6896,23,vocalization,familiar,experiment_2_retention,0.6962025316455697,800,D,F,30,376,28,8
6896,26,vocalization,familiar,experiment_2_retention,0.5673076923076923,1967,A,F,30,376,28,8
6896,27,vocalization,familiar,experiment_2_retention,0.8888888888888888,1467,T,F,30,376,28,8
6896,28,vocalization,retention,experiment_2_retention,0.7647058823529411,900,T,F,30,376,28,8
6896,29,vocalization,familiar,experiment_2_retention,0,NA,D,F,30,376,28,8
6896,30,vocalization,retention,experiment_2_retention,0.6,1333,D,F,30,376,28,8
6896,32,vocalization,retention,experiment_2_retention,0.7211538461538461,1700,A,F,30,376,28,8
6896,34,vocalization,familiar,experiment_2_retention,0.0875,4033,D,F,30,376,28,8
6896,35,vocalization,retention,experiment_2_retention,0.3333333333333333,233,D,F,30,376,28,8
6896,36,vocalization,familiar,experiment_2_retention,1,NA,T,F,30,376,28,8
6896,37,vocalization,retention,experiment_2_retention,0.24528301886792453,3667,A,F,30,376,28,8
6896,7,vocalization,familiar,experiment_2_retention,0.3496932515337423,1067,D,F,30,376,28,8
6896,8,vocalization,familiar,experiment_2_retention,0.3170731707317073,700,T,F,30,376,28,8
6896,9,vocalization,familiar,experiment_2_retention,0.7579617834394905,2700,T,F,30,376,28,8
6915,11,vocalization,disambiguation,experiment_2_retention,0.8076923076923077,1600,A,F,32,663,42,12
6915,12,vocalization,familiar,experiment_2_retention,0.4246575342465753,33,D,F,32,663,42,12
6915,13,vocalization,disambiguation,experiment_2_retention,0.35772357723577236,700,A,F,32,663,42,12
6915,14,vocalization,familiar,experiment_2_retention,0.7012987012987013,1633,A,F,32,663,42,12
6915,15,vocalization,disambiguation,experiment_2_retention,0.6829268292682927,1833,A,F,32,663,42,12
6915,16,vocalization,familiar,experiment_2_retention,0.580952380952381,400,A,F,32,663,42,12
6915,18,vocalization,familiar,experiment_2_retention,0.6206896551724138,2433,A,F,32,663,42,12
6915,2,vocalization,familiar,experiment_2_retention,0.7153846153846154,200,T,F,32,663,42,12
6915,21,vocalization,familiar,experiment_2_retention,0.6,533,D,F,32,663,42,12
6915,22,vocalization,familiar,experiment_2_retention,0.6024096385542169,533,D,F,32,663,42,12
6915,23,vocalization,retention,experiment_2_retention,0.19047619047619047,933,T,F,32,663,42,12
6915,25,vocalization,retention,experiment_2_retention,0.17293233082706766,233,T,F,32,663,42,12
6915,27,vocalization,retention,experiment_2_retention,0.7789473684210526,4100,A,F,32,663,42,12
6915,29,vocalization,familiar,experiment_2_retention,0.49557522123893805,667,D,F,32,663,42,12
6915,3,vocalization,familiar,experiment_2_retention,0.6323529411764706,600,D,F,32,663,42,12
6915,30,vocalization,retention,experiment_2_retention,0.7166666666666667,400,T,F,32,663,42,12
6915,31,vocalization,familiar,experiment_2_retention,0.6699029126213593,333,T,F,32,663,42,12
6915,4,vocalization,familiar,experiment_2_retention,0.6204379562043796,1033,T,F,32,663,42,12
6915,5,vocalization,disambiguation,experiment_2_retention,0.9090909090909091,267,T,F,32,663,42,12
6915,6,vocalization,familiar,experiment_2_retention,0.2807017543859649,633,D,F,32,663,42,12
6915,7,vocalization,disambiguation,experiment_2_retention,0.4380165289256198,167,T,F,32,663,42,12
6915,8,vocalization,familiar,experiment_2_retention,0.38095238095238093,433,D,F,32,663,42,12
6915,9,vocalization,disambiguation,experiment_2_retention,0.2535211267605634,333,D,F,32,663,42,12
6921,11,vocalization,disambiguation,experiment_2_retention,1,NA,T,F,32,654,43,12
6921,12,vocalization,familiar,experiment_2_retention,0.4262295081967213,900,D,F,32,654,43,12
6921,13,vocalization,disambiguation,experiment_2_retention,0.391304347826087,1800,T,F,32,654,43,12
6921,14,vocalization,familiar,experiment_2_retention,0.7655172413793103,1133,D,F,32,654,43,12
6921,15,vocalization,disambiguation,experiment_2_retention,0,NA,D,F,32,654,43,12
6921,16,vocalization,familiar,experiment_2_retention,0.22758620689655173,3733,D,F,32,654,43,12
6921,18,vocalization,familiar,experiment_2_retention,0.7062937062937062,3367,T,F,32,654,43,12
6921,19,vocalization,disambiguation,experiment_2_retention,0.7692307692307693,1100,D,F,32,654,43,12
6921,2,vocalization,familiar,experiment_2_retention,0.4791666666666667,2300,T,F,32,654,43,12
6921,21,vocalization,familiar,experiment_2_retention,1,NA,T,F,32,654,43,12
6921,22,vocalization,familiar,experiment_2_retention,0.7333333333333333,2700,A,F,32,654,43,12
6921,23,vocalization,retention,experiment_2_retention,1,NA,T,F,32,654,43,12
6921,24,vocalization,familiar,experiment_2_retention,1,NA,T,F,32,654,43,12
6921,25,vocalization,retention,experiment_2_retention,1,NA,T,F,32,654,43,12
6921,29,vocalization,familiar,experiment_2_retention,0.7384615384615385,1600,T,F,32,654,43,12
6921,3,vocalization,familiar,experiment_2_retention,0.2074074074074074,833,D,F,32,654,43,12
6921,30,vocalization,retention,experiment_2_retention,0,NA,D,F,32,654,43,12
6921,4,vocalization,familiar,experiment_2_retention,0.5827338129496403,1933,D,F,32,654,43,12
6921,5,vocalization,disambiguation,experiment_2_retention,0.7364341085271318,500,D,F,32,654,43,12
6921,6,vocalization,familiar,experiment_2_retention,0.5103448275862069,233,D,F,32,654,43,12
6921,7,vocalization,disambiguation,experiment_2_retention,0.6762589928057554,1367,T,F,32,654,43,12
6921,8,vocalization,familiar,experiment_2_retention,0.42342342342342343,1567,T,F,32,654,43,12
6921,9,vocalization,disambiguation,experiment_2_retention,0.5111111111111111,1533,T,F,32,654,43,12
6950,11,vocalization,disambiguation,experiment_2_retention,0.46153846153846156,300,T,NA,NA,NA,NA,NA
6950,12,vocalization,familiar,experiment_2_retention,0.6222222222222222,1567,T,NA,NA,NA,NA,NA
6950,13,vocalization,disambiguation,experiment_2_retention,1,NA,A,NA,NA,NA,NA,NA
6950,14,vocalization,familiar,experiment_2_retention,0.7938144329896907,1100,A,NA,NA,NA,NA,NA
6950,15,vocalization,disambiguation,experiment_2_retention,0.8531468531468531,4067,T,NA,NA,NA,NA,NA
6950,16,vocalization,familiar,experiment_2_retention,0.8387096774193549,667,D,NA,NA,NA,NA,NA
6950,18,vocalization,familiar,experiment_2_retention,0.5108695652173914,3300,A,NA,NA,NA,NA,NA
6950,19,vocalization,disambiguation,experiment_2_retention,0.9210526315789473,1067,A,NA,NA,NA,NA,NA
6950,2,vocalization,familiar,experiment_2_retention,0.2014388489208633,1400,D,NA,NA,NA,NA,NA
6950,21,vocalization,familiar,experiment_2_retention,0.7108433734939759,100,T,NA,NA,NA,NA,NA
6950,22,vocalization,familiar,experiment_2_retention,0.7883211678832117,533,D,NA,NA,NA,NA,NA
6950,23,vocalization,retention,experiment_2_retention,0.4959349593495935,1100,A,NA,NA,NA,NA,NA
6950,24,vocalization,familiar,experiment_2_retention,0.9251700680272109,367,D,NA,NA,NA,NA,NA
6950,25,vocalization,retention,experiment_2_retention,0.7720588235294118,1133,A,NA,NA,NA,NA,NA
6950,27,vocalization,retention,experiment_2_retention,0.3767123287671233,1833,T,NA,NA,NA,NA,NA
6950,29,vocalization,familiar,experiment_2_retention,0.7872340425531915,1233,T,NA,NA,NA,NA,NA
6950,3,vocalization,familiar,experiment_2_retention,0.5573770491803278,133,T,NA,NA,NA,NA,NA
6950,31,vocalization,familiar,experiment_2_retention,0.3829787234042553,1633,A,NA,NA,NA,NA,NA
6950,32,vocalization,retention,experiment_2_retention,0.4634146341463415,167,T,NA,NA,NA,NA,NA
6950,33,vocalization,familiar,experiment_2_retention,0.6014492753623188,267,T,NA,NA,NA,NA,NA
6950,4,vocalization,familiar,experiment_2_retention,0.49264705882352944,2333,A,NA,NA,NA,NA,NA
6950,5,vocalization,disambiguation,experiment_2_retention,0.5590551181102362,1300,D,NA,NA,NA,NA,NA
6950,6,vocalization,familiar,experiment_2_retention,0.7647058823529411,633,D,NA,NA,NA,NA,NA
6950,7,vocalization,disambiguation,experiment_2_retention,1,NA,T,NA,NA,NA,NA,NA
6950,8,vocalization,familiar,experiment_2_retention,0.6818181818181818,500,D,NA,NA,NA,NA,NA
6950,9,vocalization,disambiguation,experiment_2_retention,0.5925925925925926,233,T,NA,NA,NA,NA,NA
6975,11,vocalization,disambiguation,experiment_2_retention,0.7153284671532847,2267,T,F,30,476,31,11
6975,12,vocalization,familiar,experiment_2_retention,1,NA,T,F,30,476,31,11
6975,13,vocalization,disambiguation,experiment_2_retention,1,NA,T,F,30,476,31,11
6975,14,vocalization,familiar,experiment_2_retention,0.7301587301587301,33,D,F,30,476,31,11
6975,2,vocalization,familiar,experiment_2_retention,0.45985401459854014,1067,D,F,30,476,31,11
6975,23,vocalization,retention,experiment_2_retention,0.29457364341085274,133,T,F,30,476,31,11
6975,24,vocalization,familiar,experiment_2_retention,1,NA,T,F,30,476,31,11
6975,3,vocalization,familiar,experiment_2_retention,0.8705035971223022,600,D,F,30,476,31,11
6975,30,vocalization,retention,experiment_2_retention,0.6541353383458647,2800,T,F,30,476,31,11
6975,32,vocalization,retention,experiment_2_retention,0.30327868852459017,333,D,F,30,476,31,11
6975,33,vocalization,familiar,experiment_2_retention,0.8217054263565892,3700,A,F,30,476,31,11
6975,34,vocalization,retention,experiment_2_retention,0.6857142857142857,100,D,F,30,476,31,11
6975,4,vocalization,familiar,experiment_2_retention,0.6544117647058824,1400,D,F,30,476,31,11
6975,5,vocalization,disambiguation,experiment_2_retention,1,NA,T,F,30,476,31,11
6975,6,vocalization,familiar,experiment_2_retention,0.8623188405797102,433,T,F,30,476,31,11
6975,7,vocalization,disambiguation,experiment_2_retention,0.8156028368794326,2233,T,F,30,476,31,11
6975,9,vocalization,disambiguation,experiment_2_retention,0.6260162601626016,933,A,F,30,476,31,11
7001,11,vocalization,disambiguation,experiment_2_retention,0.6846153846153846,767,D,M,30,404,34,10
7001,12,vocalization,familiar,experiment_2_retention,0.43609022556390975,1400,T,M,30,404,34,10
7001,13,vocalization,disambiguation,experiment_2_retention,0.1056338028169014,4233,D,M,30,404,34,10
7001,14,vocalization,familiar,experiment_2_retention,0.7394366197183099,1233,D,M,30,404,34,10
7001,15,vocalization,disambiguation,experiment_2_retention,0,NA,D,M,30,404,34,10
7001,16,vocalization,familiar,experiment_2_retention,1,NA,T,M,30,404,34,10
7001,17,vocalization,disambiguation,experiment_2_retention,0.2727272727272727,667,D,M,30,404,34,10
7001,18,vocalization,familiar,experiment_2_retention,0.45038167938931295,1967,T,M,30,404,34,10
7001,19,vocalization,disambiguation,experiment_2_retention,0.5546875,2400,A,M,30,404,34,10
7001,2,vocalization,familiar,experiment_2_retention,0.852112676056338,4033,T,M,30,404,34,10
7001,21,vocalization,familiar,experiment_2_retention,0.4090909090909091,1800,T,M,30,404,34,10
7001,22,vocalization,familiar,experiment_2_retention,0.7388059701492538,100,D,M,30,404,34,10
7001,23,vocalization,retention,experiment_2_retention,0.4785714285714286,2433,D,M,30,404,34,10
7001,24,vocalization,familiar,experiment_2_retention,0.24475524475524477,3600,D,M,30,404,34,10
7001,25,vocalization,retention,experiment_2_retention,0.31851851851851853,1433,T,M,30,404,34,10
7001,26,vocalization,familiar,experiment_2_retention,0.19285714285714287,900,T,M,30,404,34,10
7001,29,vocalization,familiar,experiment_2_retention,0.359375,1133,A,M,30,404,34,10
7001,3,vocalization,familiar,experiment_2_retention,0.3188405797101449,1467,T,M,30,404,34,10
7001,30,vocalization,retention,experiment_2_retention,0.5303030303030303,67,T,M,30,404,34,10
7001,31,vocalization,familiar,experiment_2_retention,0.7641509433962265,3733,A,M,30,404,34,10
7001,33,vocalization,familiar,experiment_2_retention,0.27906976744186046,1367,D,M,30,404,34,10
7001,4,vocalization,familiar,experiment_2_retention,0.06521739130434782,4300,D,M,30,404,34,10
7001,5,vocalization,disambiguation,experiment_2_retention,0.4195804195804196,2767,D,M,30,404,34,10
7001,6,vocalization,familiar,experiment_2_retention,0.7916666666666666,1067,A,M,30,404,34,10
7001,7,vocalization,disambiguation,experiment_2_retention,0.2391304347826087,3967,D,M,30,404,34,10
7001,8,vocalization,familiar,experiment_2_retention,0.5625,200,D,M,30,404,34,10
7001,9,vocalization,disambiguation,experiment_2_retention,0.48091603053435117,600,D,M,30,404,34,10
7020,11,vocalization,disambiguation,experiment_2_retention,0.3333333333333333,1200,T,NA,NA,NA,NA,NA
7020,12,vocalization,familiar,experiment_2_retention,0.07246376811594203,333,T,NA,NA,NA,NA,NA
7020,13,vocalization,disambiguation,experiment_2_retention,0.5606060606060606,33,D,NA,NA,NA,NA,NA
7020,17,vocalization,disambiguation,experiment_2_retention,0.02857142857142857,4533,D,NA,NA,NA,NA,NA
7020,18,vocalization,familiar,experiment_2_retention,0.6617647058823529,767,A,NA,NA,NA,NA,NA
7020,2,vocalization,familiar,experiment_2_retention,0.1875,3900,D,NA,NA,NA,NA,NA
7020,21,vocalization,familiar,experiment_2_retention,0.4491525423728814,1767,T,NA,NA,NA,NA,NA
7020,22,vocalization,familiar,experiment_2_retention,0.366412213740458,300,T,NA,NA,NA,NA,NA
7020,23,vocalization,retention,experiment_2_retention,0.582089552238806,1333,D,NA,NA,NA,NA,NA
7020,25,vocalization,retention,experiment_2_retention,0.3115942028985507,3167,D,NA,NA,NA,NA,NA
7020,3,vocalization,familiar,experiment_2_retention,0.7410071942446043,1200,D,NA,NA,NA,NA,NA
7020,30,vocalization,retention,experiment_2_retention,0,NA,A,NA,NA,NA,NA,NA
7020,4,vocalization,familiar,experiment_2_retention,0.9558823529411765,4333,T,NA,NA,NA,NA,NA
7020,5,vocalization,disambiguation,experiment_2_retention,0.8309859154929577,33,T,NA,NA,NA,NA,NA
7020,6,vocalization,familiar,experiment_2_retention,0.2972972972972973,1467,T,NA,NA,NA,NA,NA
7020,7,vocalization,disambiguation,experiment_2_retention,0.6976744186046512,133,D,NA,NA,NA,NA,NA
7020,8,vocalization,familiar,experiment_2_retention,0.8571428571428571,4e3,T,NA,NA,NA,NA,NA
7040,11,vocalization,disambiguation,experiment_2_retention,0.8275862068965517,833,D,M,31,643,39,12
7040,12,vocalization,familiar,experiment_2_retention,0.6764705882352942,1033,T,M,31,643,39,12
7040,13,vocalization,disambiguation,experiment_2_retention,0.7794117647058824,1100,T,M,31,643,39,12
7040,14,vocalization,familiar,experiment_2_retention,1,NA,A,M,31,643,39,12
7040,15,vocalization,disambiguation,experiment_2_retention,0.4925373134328358,1667,D,M,31,643,39,12
7040,16,vocalization,familiar,experiment_2_retention,0.5517241379310345,1100,A,M,31,643,39,12
7040,17,vocalization,disambiguation,experiment_2_retention,0.7931034482758621,1e3,D,M,31,643,39,12
7040,18,vocalization,familiar,experiment_2_retention,0.43356643356643354,2833,A,M,31,643,39,12
7040,19,vocalization,disambiguation,experiment_2_retention,0.8380281690140845,1300,T,M,31,643,39,12
7040,2,vocalization,familiar,experiment_2_retention,0,NA,D,M,31,643,39,12
7040,21,vocalization,familiar,experiment_2_retention,0.35074626865671643,1667,A,M,31,643,39,12
7040,22,vocalization,familiar,experiment_2_retention,0.7153284671532847,1300,T,M,31,643,39,12
7040,24,vocalization,familiar,experiment_2_retention,0.7983870967741935,1600,A,M,31,643,39,12
7040,25,vocalization,retention,experiment_2_retention,0.7430555555555556,1233,D,M,31,643,39,12
7040,26,vocalization,familiar,experiment_2_retention,0.921875,2133,T,M,31,643,39,12
7040,29,vocalization,familiar,experiment_2_retention,0.7058823529411765,300,D,M,31,643,39,12
7040,3,vocalization,familiar,experiment_2_retention,0.6715328467153284,3e3,T,M,31,643,39,12
7040,30,vocalization,retention,experiment_2_retention,0.8737864077669902,433,D,M,31,643,39,12
7040,31,vocalization,familiar,experiment_2_retention,0.6056338028169014,633,T,M,31,643,39,12
7040,33,vocalization,familiar,experiment_2_retention,0.11643835616438356,567,T,M,31,643,39,12
7040,34,vocalization,retention,experiment_2_retention,0.8313253012048193,600,A,M,31,643,39,12
7040,4,vocalization,familiar,experiment_2_retention,0.6518518518518519,2933,T,M,31,643,39,12
7040,5,vocalization,disambiguation,experiment_2_retention,0.8201438848920863,833,D,M,31,643,39,12
7040,6,vocalization,familiar,experiment_2_retention,0.7971014492753623,1333,T,M,31,643,39,12
7040,8,vocalization,familiar,experiment_2_retention,0.8560606060606061,1500,T,M,31,643,39,12
7040,9,vocalization,disambiguation,experiment_2_retention,0.7744360902255639,767,A,M,31,643,39,12
7077,11,vocalization,disambiguation,experiment_2_retention,0.8428571428571429,2400,T,M,31,653,37,12
7077,12,vocalization,familiar,experiment_2_retention,0.13432835820895522,2600,A,M,31,653,37,12
7077,16,vocalization,familiar,experiment_2_retention,0.5478260869565217,2100,T,M,31,653,37,12
7077,18,vocalization,familiar,experiment_2_retention,0.7345132743362832,2067,A,M,31,653,37,12
7077,19,vocalization,disambiguation,experiment_2_retention,0.6261682242990654,1200,A,M,31,653,37,12
7077,2,vocalization,familiar,experiment_2_retention,0.9424460431654677,2567,T,M,31,653,37,12
7077,25,vocalization,retention,experiment_2_retention,0.6266666666666667,2867,A,M,31,653,37,12
7077,26,vocalization,familiar,experiment_2_retention,0.6990291262135923,2267,A,M,31,653,37,12
7077,27,vocalization,retention,experiment_2_retention,0.7972972972972973,3e3,A,M,31,653,37,12
7077,3,vocalization,familiar,experiment_2_retention,0.47058823529411764,733,D,M,31,653,37,12
7077,30,vocalization,retention,experiment_2_retention,0.8333333333333334,467,D,M,31,653,37,12
7077,31,vocalization,familiar,experiment_2_retention,0.4,733,D,M,31,653,37,12
7077,32,vocalization,retention,experiment_2_retention,0.7222222222222222,67,D,M,31,653,37,12
7077,6,vocalization,familiar,experiment_2_retention,0,NA,D,M,31,653,37,12
7077,7,vocalization,disambiguation,experiment_2_retention,0.7777777777777778,267,T,M,31,653,37,12
7077,8,vocalization,familiar,experiment_2_retention,0.9571428571428572,100,D,M,31,653,37,12
7077,9,vocalization,disambiguation,experiment_2_retention,0.8421052631578947,833,A,M,31,653,37,12
7383,10,vocalization,disambiguation,experiment_1,0.7318840579710145,367,T,NA,NA,NA,NA,NA
7383,11,onomatopoeic,familiar,experiment_1,0.367816091954023,1833,D,NA,NA,NA,NA,NA
7383,11,onomatopoeic,familiar,experiment_1,0.367816091954023,NA,D,NA,NA,NA,NA,NA
7383,11,vocalization,familiar,experiment_1,0,1833,D,NA,NA,NA,NA,NA
7383,11,vocalization,familiar,experiment_1,0,NA,D,NA,NA,NA,NA,NA
7383,12,onomatopoeic,familiar,experiment_1,0.7547169811320755,433,D,NA,NA,NA,NA,NA
7383,12,onomatopoeic,familiar,experiment_1,0.7547169811320755,833,D,NA,NA,NA,NA,NA
7383,12,vocalization,disambiguation,experiment_1,0.8299319727891157,433,D,NA,NA,NA,NA,NA
7383,12,vocalization,disambiguation,experiment_1,0.8299319727891157,833,D,NA,NA,NA,NA,NA
7383,13,onomatopoeic,familiar,experiment_1,1,NA,T,NA,NA,NA,NA,NA
7383,13,onomatopoeic,familiar,experiment_1,1,633,D,NA,NA,NA,NA,NA
7383,13,vocalization,familiar,experiment_1,0.875,NA,T,NA,NA,NA,NA,NA
7383,13,vocalization,familiar,experiment_1,0.875,633,D,NA,NA,NA,NA,NA
7383,14,onomatopoeic,familiar,experiment_1,0.8,700,D,NA,NA,NA,NA,NA
7383,14,onomatopoeic,familiar,experiment_1,0.8,300,D,NA,NA,NA,NA,NA
7383,14,vocalization,familiar,experiment_1,0.9395973154362416,700,D,NA,NA,NA,NA,NA
7383,14,vocalization,familiar,experiment_1,0.9395973154362416,300,D,NA,NA,NA,NA,NA
7383,15,onomatopoeic,familiar,experiment_1,0.8992248062015504,433,D,NA,NA,NA,NA,NA
7383,16,onomatopoeic,familiar,experiment_1,0.8090909090909091,33,T,NA,NA,NA,NA,NA
7383,16,onomatopoeic,familiar,experiment_1,0.8090909090909091,1600,D,NA,NA,NA,NA,NA
7383,16,vocalization,disambiguation,experiment_1,0.4930555555555556,33,T,NA,NA,NA,NA,NA
7383,16,vocalization,disambiguation,experiment_1,0.4930555555555556,1600,D,NA,NA,NA,NA,NA
7383,17,onomatopoeic,familiar,experiment_1,0.6470588235294118,600,D,NA,NA,NA,NA,NA
7383,17,onomatopoeic,familiar,experiment_1,0.6470588235294118,267,T,NA,NA,NA,NA,NA
7383,17,vocalization,familiar,experiment_1,0.44360902255639095,600,D,NA,NA,NA,NA,NA
7383,17,vocalization,familiar,experiment_1,0.44360902255639095,267,T,NA,NA,NA,NA,NA
7383,18,vocalization,familiar,experiment_1,0.7969924812030075,333,A,NA,NA,NA,NA,NA
7383,19,vocalization,disambiguation,experiment_1,0.64,3200,T,NA,NA,NA,NA,NA
7383,2,name,familiar,experiment_1,0.8181818181818182,3e3,T,NA,NA,NA,NA,NA
7383,20,name,disambiguation,experiment_1,0.918918918918919,300,D,NA,NA,NA,NA,NA
7383,20,vocalization,familiar,experiment_1,0.7596899224806202,300,D,NA,NA,NA,NA,NA
7383,21,name,familiar,experiment_1,0.8682170542635659,567,D,NA,NA,NA,NA,NA
7383,21,name,familiar,experiment_1,0.8682170542635659,1033,D,NA,NA,NA,NA,NA
7383,21,vocalization,familiar,experiment_1,0.7919463087248322,567,D,NA,NA,NA,NA,NA
7383,21,vocalization,familiar,experiment_1,0.7919463087248322,1033,D,NA,NA,NA,NA,NA
7383,22,name,disambiguation,experiment_1,0.5,500,T,NA,NA,NA,NA,NA
7383,23,name,familiar,experiment_1,0.9724770642201835,100,D,NA,NA,NA,NA,NA
7383,23,name,familiar,experiment_1,0.9724770642201835,1200,T,NA,NA,NA,NA,NA
7383,23,vocalization,familiar,experiment_1,0.3617021276595745,100,D,NA,NA,NA,NA,NA
7383,23,vocalization,familiar,experiment_1,0.3617021276595745,1200,T,NA,NA,NA,NA,NA
7383,24,name,disambiguation,experiment_1,0.848,200,T,NA,NA,NA,NA,NA
7383,24,name,disambiguation,experiment_1,0.848,NA,T,NA,NA,NA,NA,NA
7383,24,vocalization,disambiguation,experiment_1,1,200,T,NA,NA,NA,NA,NA
7383,24,vocalization,disambiguation,experiment_1,1,NA,T,NA,NA,NA,NA,NA
7383,25,name,familiar,experiment_1,0.9181818181818182,300,D,NA,NA,NA,NA,NA
7383,25,name,familiar,experiment_1,0.9181818181818182,533,D,NA,NA,NA,NA,NA
7383,25,vocalization,familiar,experiment_1,0.8723404255319149,300,D,NA,NA,NA,NA,NA
7383,25,vocalization,familiar,experiment_1,0.8723404255319149,533,D,NA,NA,NA,NA,NA
7383,26,name,disambiguation,experiment_1,0.49382716049382713,2067,A,NA,NA,NA,NA,NA
7383,26,name,disambiguation,experiment_1,0.49382716049382713,33,T,NA,NA,NA,NA,NA
7383,26,vocalization,familiar,experiment_1,0.9097222222222222,2067,A,NA,NA,NA,NA,NA
7383,26,vocalization,familiar,experiment_1,0.9097222222222222,33,T,NA,NA,NA,NA,NA
7383,27,vocalization,disambiguation,experiment_1,1,NA,T,NA,NA,NA,NA,NA
7383,28,name,disambiguation,experiment_1,0.7870370370370371,833,A,NA,NA,NA,NA,NA
7383,28,name,disambiguation,experiment_1,0.7870370370370371,833,D,NA,NA,NA,NA,NA
7383,28,vocalization,familiar,experiment_1,0.8299319727891157,833,A,NA,NA,NA,NA,NA
7383,28,vocalization,familiar,experiment_1,0.8299319727891157,833,D,NA,NA,NA,NA,NA
7383,29,name,familiar,experiment_1,1,NA,T,NA,NA,NA,NA,NA
7383,3,name,familiar,experiment_1,0.9099099099099099,333,D,NA,NA,NA,NA,NA
7383,30,name,disambiguation,experiment_1,0.7289719626168224,367,T,NA,NA,NA,NA,NA
7383,31,name,familiar,experiment_1,0.8928571428571429,400,D,NA,NA,NA,NA,NA
7383,32,name,disambiguation,experiment_1,0.8518518518518519,267,T,NA,NA,NA,NA,NA
7383,33,name,familiar,experiment_1,0.7431192660550459,933,D,NA,NA,NA,NA,NA
7383,34,name,disambiguation,experiment_1,0.8125,700,D,NA,NA,NA,NA,NA
7383,4,name,familiar,experiment_1,1,NA,T,NA,NA,NA,NA,NA
7383,5,name,familiar,experiment_1,0.7872340425531915,667,D,NA,NA,NA,NA,NA
7383,5,name,familiar,experiment_1,0.7872340425531915,967,D,NA,NA,NA,NA,NA
7383,5,vocalization,familiar,experiment_1,0.6136363636363636,667,D,NA,NA,NA,NA,NA
7383,5,vocalization,familiar,experiment_1,0.6136363636363636,967,D,NA,NA,NA,NA,NA
7383,6,name,familiar,experiment_1,0.41509433962264153,1567,D,NA,NA,NA,NA,NA
7383,6,name,familiar,experiment_1,0.41509433962264153,1267,D,NA,NA,NA,NA,NA
7383,6,vocalization,familiar,experiment_1,0.27419354838709675,1567,D,NA,NA,NA,NA,NA
7383,6,vocalization,familiar,experiment_1,0.27419354838709675,1267,D,NA,NA,NA,NA,NA
7383,7,name,familiar,experiment_1,0.7844827586206896,300,T,NA,NA,NA,NA,NA
7383,7,name,familiar,experiment_1,0.7844827586206896,2133,T,NA,NA,NA,NA,NA
7383,7,vocalization,disambiguation,experiment_1,0.6594202898550725,300,T,NA,NA,NA,NA,NA
7383,7,vocalization,disambiguation,experiment_1,0.6594202898550725,2133,T,NA,NA,NA,NA,NA
7383,8,name,familiar,experiment_1,0.8691588785046729,300,T,NA,NA,NA,NA,NA
7383,9,name,familiar,experiment_1,0.7383177570093458,567,D,NA,NA,NA,NA,NA
7383,9,name,familiar,experiment_1,0.7383177570093458,33,T,NA,NA,NA,NA,NA
7383,9,vocalization,familiar,experiment_1,0.24806201550387597,567,D,NA,NA,NA,NA,NA
7383,9,vocalization,familiar,experiment_1,0.24806201550387597,33,T,NA,NA,NA,NA,NA
7409,10,vocalization,disambiguation,experiment_1,0.5315315315315315,567,D,F,31,433,31,2
7409,11,onomatopoeic,familiar,experiment_1,0.5,33,T,F,31,433,31,2
7409,11,onomatopoeic,familiar,experiment_1,0.5,533,D,F,31,433,31,2
7409,11,vocalization,familiar,experiment_1,0.891156462585034,33,T,F,31,433,31,2
7409,11,vocalization,familiar,experiment_1,0.891156462585034,533,D,F,31,433,31,2
7409,12,onomatopoeic,familiar,experiment_1,0.4375,167,T,F,31,433,31,2
7409,12,onomatopoeic,familiar,experiment_1,0.4375,700,D,F,31,433,31,2
7409,12,vocalization,disambiguation,experiment_1,0.8205128205128205,167,T,F,31,433,31,2
7409,12,vocalization,disambiguation,experiment_1,0.8205128205128205,700,D,F,31,433,31,2
7409,13,onomatopoeic,familiar,experiment_1,0.7321428571428571,1e3,D,F,31,433,31,2
7409,14,onomatopoeic,familiar,experiment_1,0.5063291139240507,1300,D,F,31,433,31,2
7409,15,onomatopoeic,familiar,experiment_1,0.5,733,D,F,31,433,31,2
7409,16,vocalization,disambiguation,experiment_1,0.7920792079207921,2200,T,F,31,433,31,2
7409,17,vocalization,familiar,experiment_1,0.6136363636363636,767,D,F,31,433,31,2
7409,18,onomatopoeic,familiar,experiment_1,0.580952380952381,2067,A,F,31,433,31,2
7409,18,onomatopoeic,familiar,experiment_1,0.580952380952381,67,D,F,31,433,31,2
7409,18,vocalization,familiar,experiment_1,0.9512195121951219,2067,A,F,31,433,31,2
7409,18,vocalization,familiar,experiment_1,0.9512195121951219,67,D,F,31,433,31,2
7409,19,vocalization,disambiguation,experiment_1,0.6458333333333334,1033,T,F,31,433,31,2
7409,2,name,familiar,experiment_1,0.6555555555555556,1967,T,F,31,433,31,2
7409,2,name,familiar,experiment_1,0.6555555555555556,1333,T,F,31,433,31,2
7409,2,vocalization,familiar,experiment_1,0.7465753424657534,1967,T,F,31,433,31,2
7409,2,vocalization,familiar,experiment_1,0.7465753424657534,1333,T,F,31,433,31,2
7409,20,name,disambiguation,experiment_1,0.7352941176470589,900,D,F,31,433,31,2
7409,20,name,disambiguation,experiment_1,0.7352941176470589,1367,D,F,31,433,31,2
7409,20,vocalization,familiar,experiment_1,0.29310344827586204,900,D,F,31,433,31,2
7409,20,vocalization,familiar,experiment_1,0.29310344827586204,1367,D,F,31,433,31,2
7409,21,vocalization,familiar,experiment_1,0.9724137931034482,4700,T,F,31,433,31,2
7409,23,name,familiar,experiment_1,0.38,767,A,F,31,433,31,2
7409,23,name,familiar,experiment_1,0.38,367,D,F,31,433,31,2
7409,23,vocalization,familiar,experiment_1,0.52,767,A,F,31,433,31,2
7409,23,vocalization,familiar,experiment_1,0.52,367,D,F,31,433,31,2
7409,24,name,disambiguation,experiment_1,0.5227272727272727,600,D,F,31,433,31,2
7409,24,name,disambiguation,experiment_1,0.5227272727272727,1167,T,F,31,433,31,2
7409,24,vocalization,disambiguation,experiment_1,0.3181818181818182,600,D,F,31,433,31,2
7409,24,vocalization,disambiguation,experiment_1,0.3181818181818182,1167,T,F,31,433,31,2
7409,25,name,familiar,experiment_1,0.24752475247524752,467,T,F,31,433,31,2
7409,25,name,familiar,experiment_1,0.24752475247524752,667,T,F,31,433,31,2
7409,25,vocalization,familiar,experiment_1,0.4878048780487805,467,T,F,31,433,31,2
7409,25,vocalization,familiar,experiment_1,0.4878048780487805,667,T,F,31,433,31,2
7409,26,vocalization,familiar,experiment_1,0.7903225806451613,3267,T,F,31,433,31,2
7409,27,vocalization,disambiguation,experiment_1,0.7415730337078652,233,D,F,31,433,31,2
7409,28,name,disambiguation,experiment_1,0.8446601941747572,3033,A,F,31,433,31,2
7409,28,name,disambiguation,experiment_1,0.8446601941747572,1567,T,F,31,433,31,2
7409,28,vocalization,familiar,experiment_1,0.8203125,3033,A,F,31,433,31,2
7409,28,vocalization,familiar,experiment_1,0.8203125,1567,T,F,31,433,31,2
7409,29,name,familiar,experiment_1,0.325,1e3,A,F,31,433,31,2
7409,3,name,familiar,experiment_1,0.7777777777777778,667,D,F,31,433,31,2
7409,3,name,familiar,experiment_1,0.7777777777777778,1e3,D,F,31,433,31,2
7409,3,vocalization,familiar,experiment_1,0.4444444444444444,667,D,F,31,433,31,2
7409,3,vocalization,familiar,experiment_1,0.4444444444444444,1e3,D,F,31,433,31,2
7409,30,name,disambiguation,experiment_1,0.7128712871287128,1767,A,F,31,433,31,2
7409,31,name,familiar,experiment_1,0.5394736842105263,1567,A,F,31,433,31,2
7409,32,name,disambiguation,experiment_1,0.7411764705882353,767,A,F,31,433,31,2
7409,33,name,familiar,experiment_1,0.37623762376237624,1267,T,F,31,433,31,2
7409,34,name,disambiguation,experiment_1,1,NA,T,F,31,433,31,2
7409,4,name,familiar,experiment_1,0.5375,867,D,F,31,433,31,2
7409,4,name,familiar,experiment_1,0.5375,767,T,F,31,433,31,2
7409,4,vocalization,disambiguation,experiment_1,0.6634615384615384,867,D,F,31,433,31,2
7409,4,vocalization,disambiguation,experiment_1,0.6634615384615384,767,T,F,31,433,31,2
7409,5,name,familiar,experiment_1,0.7727272727272727,667,D,F,31,433,31,2
7409,5,name,familiar,experiment_1,0.7727272727272727,900,A,F,31,433,31,2
7409,5,vocalization,familiar,experiment_1,0.71875,667,D,F,31,433,31,2
7409,5,vocalization,familiar,experiment_1,0.71875,900,A,F,31,433,31,2
7409,6,name,familiar,experiment_1,0.5816326530612245,633,T,F,31,433,31,2
7409,6,name,familiar,experiment_1,0.5816326530612245,933,A,F,31,433,31,2
7409,6,vocalization,familiar,experiment_1,0.5161290322580645,633,T,F,31,433,31,2
7409,6,vocalization,familiar,experiment_1,0.5161290322580645,933,A,F,31,433,31,2
7409,7,name,familiar,experiment_1,0.625,600,D,F,31,433,31,2
7409,7,name,familiar,experiment_1,0.625,733,A,F,31,433,31,2
7409,7,vocalization,disambiguation,experiment_1,0.632,600,D,F,31,433,31,2
7409,7,vocalization,disambiguation,experiment_1,0.632,733,A,F,31,433,31,2
7409,8,name,familiar,experiment_1,0.275,767,A,F,31,433,31,2
7409,9,name,familiar,experiment_1,0.6,367,D,F,31,433,31,2
7409,9,name,familiar,experiment_1,0.6,967,T,F,31,433,31,2
7409,9,vocalization,familiar,experiment_1,0.6170212765957447,367,D,F,31,433,31,2
7409,9,vocalization,familiar,experiment_1,0.6170212765957447,967,T,F,31,433,31,2
7435,10,vocalization,disambiguation,experiment_1,0.5555555555555556,367,D,F,32,628,39,10
7435,11,onomatopoeic,familiar,experiment_1,0.9291338582677166,300,D,F,32,628,39,10
7435,12,onomatopoeic,familiar,experiment_1,1,NA,T,F,32,628,39,10
7435,12,onomatopoeic,familiar,experiment_1,1,1300,T,F,32,628,39,10
7435,12,vocalization,disambiguation,experiment_1,0.4791666666666667,NA,T,F,32,628,39,10
7435,12,vocalization,disambiguation,experiment_1,0.4791666666666667,1300,T,F,32,628,39,10
7435,13,onomatopoeic,familiar,experiment_1,0,NA,D,F,32,628,39,10
7435,13,onomatopoeic,familiar,experiment_1,0,600,D,F,32,628,39,10
7435,13,vocalization,familiar,experiment_1,0.48333333333333334,NA,D,F,32,628,39,10
7435,13,vocalization,familiar,experiment_1,0.48333333333333334,600,D,F,32,628,39,10
7435,14,onomatopoeic,familiar,experiment_1,1,NA,T,F,32,628,39,10
7435,14,onomatopoeic,familiar,experiment_1,1,3033,A,F,32,628,39,10
7435,14,vocalization,familiar,experiment_1,0.2072072072072072,NA,T,F,32,628,39,10
7435,14,vocalization,familiar,experiment_1,0.2072072072072072,3033,A,F,32,628,39,10
7435,15,onomatopoeic,familiar,experiment_1,0.31451612903225806,1100,D,F,32,628,39,10
7435,16,onomatopoeic,familiar,experiment_1,1,NA,T,F,32,628,39,10
7435,16,onomatopoeic,familiar,experiment_1,1,1667,A,F,32,628,39,10
7435,16,vocalization,disambiguation,experiment_1,0.17142857142857143,NA,T,F,32,628,39,10
7435,16,vocalization,disambiguation,experiment_1,0.17142857142857143,1667,A,F,32,628,39,10
7435,17,onomatopoeic,familiar,experiment_1,0.45045045045045046,1667,T,F,32,628,39,10
7435,17,onomatopoeic,familiar,experiment_1,0.45045045045045046,3400,T,F,32,628,39,10
7435,17,vocalization,familiar,experiment_1,0.6384615384615384,1667,T,F,32,628,39,10
7435,17,vocalization,familiar,experiment_1,0.6384615384615384,3400,T,F,32,628,39,10
7435,18,onomatopoeic,familiar,experiment_1,0.32075471698113206,1200,D,F,32,628,39,10
7435,18,onomatopoeic,familiar,experiment_1,0.32075471698113206,2867,A,F,32,628,39,10
7435,18,vocalization,familiar,experiment_1,0.7746478873239436,1200,D,F,32,628,39,10
7435,18,vocalization,familiar,experiment_1,0.7746478873239436,2867,A,F,32,628,39,10
7435,2,name,familiar,experiment_1,0,NA,D,F,32,628,39,10
7435,2,name,familiar,experiment_1,0,200,T,F,32,628,39,10
7435,2,vocalization,familiar,experiment_1,0.24475524475524477,NA,D,F,32,628,39,10
7435,2,vocalization,familiar,experiment_1,0.24475524475524477,200,T,F,32,628,39,10
7435,20,vocalization,familiar,experiment_1,0.74,3700,T,F,32,628,39,10
7435,21,name,familiar,experiment_1,0.16666666666666666,3500,D,F,32,628,39,10
7435,21,name,familiar,experiment_1,0.16666666666666666,2567,A,F,32,628,39,10
7435,21,vocalization,familiar,experiment_1,0.3611111111111111,3500,D,F,32,628,39,10
7435,21,vocalization,familiar,experiment_1,0.3611111111111111,2567,A,F,32,628,39,10
7435,22,name,disambiguation,experiment_1,1,NA,T,F,32,628,39,10
7435,23,name,familiar,experiment_1,0.509090909090909,1867,T,F,32,628,39,10
7435,23,name,familiar,experiment_1,0.509090909090909,933,T,F,32,628,39,10
7435,23,vocalization,familiar,experiment_1,0.6637168141592921,1867,T,F,32,628,39,10
7435,23,vocalization,familiar,experiment_1,0.6637168141592921,933,T,F,32,628,39,10
7435,24,name,disambiguation,experiment_1,1,NA,T,F,32,628,39,10
7435,24,vocalization,disambiguation,experiment_1,1,NA,T,F,32,628,39,10
7435,25,name,familiar,experiment_1,0.5555555555555556,1600,D,F,32,628,39,10
7435,25,name,familiar,experiment_1,0.5555555555555556,3767,D,F,32,628,39,10
7435,25,vocalization,familiar,experiment_1,0.23129251700680273,1600,D,F,32,628,39,10
7435,25,vocalization,familiar,experiment_1,0.23129251700680273,3767,D,F,32,628,39,10
7435,26,name,disambiguation,experiment_1,0.8623853211009175,3133,T,F,32,628,39,10
7435,26,name,disambiguation,experiment_1,0.8623853211009175,3633,T,F,32,628,39,10
7435,26,vocalization,familiar,experiment_1,0.7315436241610739,3133,T,F,32,628,39,10
7435,26,vocalization,familiar,experiment_1,0.7315436241610739,3633,T,F,32,628,39,10
7435,27,vocalization,disambiguation,experiment_1,0.6494845360824743,1633,T,F,32,628,39,10
7435,28,name,disambiguation,experiment_1,0.3977272727272727,1167,T,F,32,628,39,10
7435,29,name,familiar,experiment_1,0.5416666666666666,1733,T,F,32,628,39,10
7435,3,name,familiar,experiment_1,0,NA,D,F,32,628,39,10
7435,3,name,familiar,experiment_1,0,1133,D,F,32,628,39,10
7435,3,vocalization,familiar,experiment_1,0.42028985507246375,NA,D,F,32,628,39,10
7435,3,vocalization,familiar,experiment_1,0.42028985507246375,1133,D,F,32,628,39,10
7435,30,name,disambiguation,experiment_1,0.4056603773584906,2100,D,F,32,628,39,10
7435,31,name,familiar,experiment_1,0.8727272727272727,467,D,F,32,628,39,10
7435,32,name,disambiguation,experiment_1,0.06422018348623854,3400,D,F,32,628,39,10
7435,33,name,familiar,experiment_1,0.21212121212121213,500,D,F,32,628,39,10
7435,34,name,disambiguation,experiment_1,0.7889908256880734,767,D,F,32,628,39,10
7435,4,name,familiar,experiment_1,0.527027027027027,1167,D,F,32,628,39,10
7435,4,name,familiar,experiment_1,0.527027027027027,33,T,F,32,628,39,10
7435,4,vocalization,disambiguation,experiment_1,0.4855072463768116,1167,D,F,32,628,39,10
7435,4,vocalization,disambiguation,experiment_1,0.4855072463768116,33,T,F,32,628,39,10
7435,5,vocalization,familiar,experiment_1,0.8389261744966443,800,D,F,32,628,39,10
7435,6,name,familiar,experiment_1,0.62,867,T,F,32,628,39,10
7435,6,name,familiar,experiment_1,0.62,867,D,F,32,628,39,10
7435,6,vocalization,familiar,experiment_1,0.8266666666666667,867,T,F,32,628,39,10
7435,6,vocalization,familiar,experiment_1,0.8266666666666667,867,D,F,32,628,39,10
7435,7,name,familiar,experiment_1,0.36220472440944884,1533,T,F,32,628,39,10
7435,7,name,familiar,experiment_1,0.36220472440944884,800,D,F,32,628,39,10
7435,7,vocalization,disambiguation,experiment_1,0.84,1533,T,F,32,628,39,10
7435,7,vocalization,disambiguation,experiment_1,0.84,800,D,F,32,628,39,10
7435,8,name,familiar,experiment_1,0.6111111111111112,1167,D,F,32,628,39,10
7435,9,vocalization,familiar,experiment_1,0.7183098591549296,300,T,F,32,628,39,10
7462,10,onomatopoeic,familiar,experiment_1,0.42857142857142855,1500,D,F,32,329,33,12
7462,10,onomatopoeic,familiar,experiment_1,0.42857142857142855,1167,D,F,32,329,33,12
7462,10,vocalization,disambiguation,experiment_1,0.738255033557047,1500,D,F,32,329,33,12
7462,10,vocalization,disambiguation,experiment_1,0.738255033557047,1167,D,F,32,329,33,12
7462,11,name,disambiguation,experiment_1,0.7777777777777778,1400,T,F,32,329,33,12
7462,11,name,disambiguation,experiment_1,0.7777777777777778,NA,T,F,32,329,33,12
7462,11,vocalization,familiar,experiment_1,1,1400,T,F,32,329,33,12
7462,11,vocalization,familiar,experiment_1,1,NA,T,F,32,329,33,12
7462,12,name,familiar,experiment_1,0.22641509433962265,200,T,F,32,329,33,12
7462,12,name,familiar,experiment_1,0.22641509433962265,700,D,F,32,329,33,12
7462,12,vocalization,disambiguation,experiment_1,0.8372093023255814,200,T,F,32,329,33,12
7462,12,vocalization,disambiguation,experiment_1,0.8372093023255814,700,D,F,32,329,33,12
7462,13,name,disambiguation,experiment_1,0.5192307692307693,700,T,F,32,329,33,12
7462,13,name,disambiguation,experiment_1,0.5192307692307693,867,D,F,32,329,33,12
7462,13,vocalization,familiar,experiment_1,0.8266666666666667,700,T,F,32,329,33,12
7462,13,vocalization,familiar,experiment_1,0.8266666666666667,867,D,F,32,329,33,12
7462,14,name,familiar,experiment_1,0.5871559633027523,2133,T,F,32,329,33,12
7462,14,name,familiar,experiment_1,0.5871559633027523,1700,D,F,32,329,33,12
7462,14,vocalization,familiar,experiment_1,0.6076923076923076,2133,T,F,32,329,33,12
7462,14,vocalization,familiar,experiment_1,0.6076923076923076,1700,D,F,32,329,33,12
7462,15,name,disambiguation,experiment_1,0.6727272727272727,1200,D,F,32,329,33,12
7462,16,vocalization,disambiguation,experiment_1,0.35333333333333333,733,D,F,32,329,33,12
7462,17,onomatopoeic,familiar,experiment_1,0.7920792079207921,967,A,F,32,329,33,12
7462,17,onomatopoeic,familiar,experiment_1,0.7920792079207921,2500,T,F,32,329,33,12
7462,17,vocalization,familiar,experiment_1,0.8040540540540541,967,A,F,32,329,33,12
7462,17,vocalization,familiar,experiment_1,0.8040540540540541,2500,T,F,32,329,33,12
7462,18,onomatopoeic,familiar,experiment_1,0.626984126984127,400,T,F,32,329,33,12
7462,18,onomatopoeic,familiar,experiment_1,0.626984126984127,1400,T,F,32,329,33,12
7462,18,vocalization,familiar,experiment_1,0.797979797979798,400,T,F,32,329,33,12
7462,18,vocalization,familiar,experiment_1,0.797979797979798,1400,T,F,32,329,33,12
7462,19,onomatopoeic,familiar,experiment_1,0.5445544554455446,300,T,F,32,329,33,12
7462,19,onomatopoeic,familiar,experiment_1,0.5445544554455446,1467,T,F,32,329,33,12
7462,19,vocalization,disambiguation,experiment_1,0.43137254901960786,300,T,F,32,329,33,12
7462,19,vocalization,disambiguation,experiment_1,0.43137254901960786,1467,T,F,32,329,33,12
7462,2,name,familiar,experiment_1,0.6859504132231405,367,D,F,32,329,33,12
7462,2,name,familiar,experiment_1,0.6859504132231405,600,T,F,32,329,33,12
7462,2,vocalization,familiar,experiment_1,0.5694444444444444,367,D,F,32,329,33,12
7462,2,vocalization,familiar,experiment_1,0.5694444444444444,600,T,F,32,329,33,12
7462,20,onomatopoeic,familiar,experiment_1,0.8113207547169812,900,T,F,32,329,33,12
7462,21,vocalization,familiar,experiment_1,0.8823529411764706,4567,A,F,32,329,33,12
7462,22,name,disambiguation,experiment_1,0.8529411764705882,500,D,F,32,329,33,12
7462,23,name,familiar,experiment_1,0.8207547169811321,1233,A,F,32,329,33,12
7462,23,name,familiar,experiment_1,0.8207547169811321,367,D,F,32,329,33,12
7462,23,vocalization,familiar,experiment_1,0.6944444444444444,1233,A,F,32,329,33,12
7462,23,vocalization,familiar,experiment_1,0.6944444444444444,367,D,F,32,329,33,12
7462,24,name,disambiguation,experiment_1,0.7636363636363637,867,D,F,32,329,33,12
7462,25,name,familiar,experiment_1,0.8490566037735849,533,D,F,32,329,33,12
7462,26,name,disambiguation,experiment_1,0.6153846153846154,1100,D,F,32,329,33,12
7462,3,name,familiar,experiment_1,0.6116504854368932,633,D,F,32,329,33,12
7462,3,name,familiar,experiment_1,0.6116504854368932,NA,T,F,32,329,33,12
7462,3,vocalization,familiar,experiment_1,1,633,D,F,32,329,33,12
7462,3,vocalization,familiar,experiment_1,1,NA,T,F,32,329,33,12
7462,4,name,familiar,experiment_1,0.7647058823529411,533,D,F,32,329,33,12
7462,4,name,familiar,experiment_1,0.7647058823529411,900,D,F,32,329,33,12
7462,4,vocalization,disambiguation,experiment_1,0.82,533,D,F,32,329,33,12
7462,4,vocalization,disambiguation,experiment_1,0.82,900,D,F,32,329,33,12
7462,5,name,familiar,experiment_1,1,NA,T,F,32,329,33,12
7462,5,name,familiar,experiment_1,1,667,D,F,32,329,33,12
7462,5,vocalization,familiar,experiment_1,0.8675496688741722,NA,T,F,32,329,33,12
7462,5,vocalization,familiar,experiment_1,0.8675496688741722,667,D,F,32,329,33,12
7462,6,vocalization,familiar,experiment_1,1,NA,T,F,32,329,33,12
7462,7,onomatopoeic,familiar,experiment_1,0.594059405940594,233,D,F,32,329,33,12
7462,7,onomatopoeic,familiar,experiment_1,0.594059405940594,33,D,F,32,329,33,12
7462,7,vocalization,disambiguation,experiment_1,0.9933774834437086,233,D,F,32,329,33,12
7462,7,vocalization,disambiguation,experiment_1,0.9933774834437086,33,D,F,32,329,33,12
7462,8,onomatopoeic,familiar,experiment_1,0.7547169811320755,2467,T,F,32,329,33,12
7462,9,onomatopoeic,familiar,experiment_1,0.9921259842519685,4200,T,F,32,329,33,12
7462,9,onomatopoeic,familiar,experiment_1,0.9921259842519685,NA,T,F,32,329,33,12
7462,9,vocalization,familiar,experiment_1,1,4200,T,F,32,329,33,12
7462,9,vocalization,familiar,experiment_1,1,NA,T,F,32,329,33,12
7471,10,onomatopoeic,familiar,experiment_1,1,NA,T,F,32,611,43,12
7471,11,name,disambiguation,experiment_1,0.8823529411764706,867,A,F,32,611,43,12
7471,11,name,disambiguation,experiment_1,0.8823529411764706,NA,T,F,32,611,43,12
7471,11,vocalization,familiar,experiment_1,1,867,A,F,32,611,43,12
7471,11,vocalization,familiar,experiment_1,1,NA,T,F,32,611,43,12
7471,12,name,familiar,experiment_1,0.6813186813186813,1533,A,F,32,611,43,12
7471,12,name,familiar,experiment_1,0.6813186813186813,867,T,F,32,611,43,12
7471,12,vocalization,disambiguation,experiment_1,0.7553191489361702,1533,A,F,32,611,43,12
7471,12,vocalization,disambiguation,experiment_1,0.7553191489361702,867,T,F,32,611,43,12
7471,13,name,disambiguation,experiment_1,1,NA,T,F,32,611,43,12
7471,13,name,disambiguation,experiment_1,1,2833,D,F,32,611,43,12
7471,13,vocalization,familiar,experiment_1,0.4370860927152318,NA,T,F,32,611,43,12
7471,13,vocalization,familiar,experiment_1,0.4370860927152318,2833,D,F,32,611,43,12
7471,14,name,familiar,experiment_1,0.7722772277227723,233,D,F,32,611,43,12
7471,14,name,familiar,experiment_1,0.7722772277227723,333,D,F,32,611,43,12
7471,14,vocalization,familiar,experiment_1,0.9173553719008265,233,D,F,32,611,43,12
7471,14,vocalization,familiar,experiment_1,0.9173553719008265,333,D,F,32,611,43,12
7471,15,name,disambiguation,experiment_1,0.9439252336448598,933,T,F,32,611,43,12
7471,16,vocalization,disambiguation,experiment_1,0.6164383561643836,1233,D,F,32,611,43,12
7471,17,onomatopoeic,familiar,experiment_1,1,NA,A,F,32,611,43,12
7471,17,onomatopoeic,familiar,experiment_1,1,767,T,F,32,611,43,12
7471,17,vocalization,familiar,experiment_1,0.9115646258503401,NA,A,F,32,611,43,12
7471,17,vocalization,familiar,experiment_1,0.9115646258503401,767,T,F,32,611,43,12
7471,18,onomatopoeic,familiar,experiment_1,0.8942307692307693,167,D,F,32,611,43,12
7471,18,onomatopoeic,familiar,experiment_1,0.8942307692307693,3300,T,F,32,611,43,12
7471,18,vocalization,familiar,experiment_1,0.7333333333333333,167,D,F,32,611,43,12
7471,18,vocalization,familiar,experiment_1,0.7333333333333333,3300,T,F,32,611,43,12
7471,19,onomatopoeic,familiar,experiment_1,0.8761061946902655,467,D,F,32,611,43,12
7471,2,name,familiar,experiment_1,0.3898305084745763,600,D,F,32,611,43,12
7471,2,name,familiar,experiment_1,0.3898305084745763,433,D,F,32,611,43,12
7471,2,vocalization,familiar,experiment_1,0.9097222222222222,600,D,F,32,611,43,12
7471,2,vocalization,familiar,experiment_1,0.9097222222222222,433,D,F,32,611,43,12
7471,20,onomatopoeic,familiar,experiment_1,0.8899082568807339,400,D,F,32,611,43,12
7471,20,onomatopoeic,familiar,experiment_1,0.8899082568807339,467,A,F,32,611,43,12
7471,20,vocalization,familiar,experiment_1,0.9230769230769231,400,D,F,32,611,43,12
7471,20,vocalization,familiar,experiment_1,0.9230769230769231,467,A,F,32,611,43,12
7471,21,vocalization,familiar,experiment_1,0.9662162162162162,4767,T,F,32,611,43,12
7471,22,name,disambiguation,experiment_1,0.6741573033707865,367,A,F,32,611,43,12
7471,23,name,familiar,experiment_1,0.7764705882352941,633,D,F,32,611,43,12
7471,23,name,familiar,experiment_1,0.7764705882352941,NA,T,F,32,611,43,12
7471,23,vocalization,familiar,experiment_1,1,633,D,F,32,611,43,12
7471,23,vocalization,familiar,experiment_1,1,NA,T,F,32,611,43,12
7471,24,name,disambiguation,experiment_1,0.5084745762711864,533,D,F,32,611,43,12
7471,24,name,disambiguation,experiment_1,0.5084745762711864,800,A,F,32,611,43,12
7471,24,vocalization,disambiguation,experiment_1,0.6145833333333334,533,D,F,32,611,43,12
7471,24,vocalization,disambiguation,experiment_1,0.6145833333333334,800,A,F,32,611,43,12
7471,25,name,familiar,experiment_1,0.65625,333,T,F,32,611,43,12
7471,25,name,familiar,experiment_1,0.65625,867,T,F,32,611,43,12
7471,25,vocalization,familiar,experiment_1,0.5666666666666667,333,T,F,32,611,43,12
7471,25,vocalization,familiar,experiment_1,0.5666666666666667,867,T,F,32,611,43,12
7471,26,name,disambiguation,experiment_1,0.6744186046511628,2667,A,F,32,611,43,12
7471,26,name,disambiguation,experiment_1,0.6744186046511628,67,T,F,32,611,43,12
7471,26,vocalization,familiar,experiment_1,0.4896551724137931,2667,A,F,32,611,43,12
7471,26,vocalization,familiar,experiment_1,0.4896551724137931,67,T,F,32,611,43,12
7471,27,vocalization,disambiguation,experiment_1,0.4166666666666667,1167,D,F,32,611,43,12
7471,28,vocalization,familiar,experiment_1,0.6052631578947368,467,D,F,32,611,43,12
7471,3,name,familiar,experiment_1,0.7238095238095238,867,T,F,32,611,43,12
7471,3,name,familiar,experiment_1,0.7238095238095238,667,D,F,32,611,43,12
7471,3,vocalization,familiar,experiment_1,0.8473282442748091,867,T,F,32,611,43,12
7471,3,vocalization,familiar,experiment_1,0.8473282442748091,667,D,F,32,611,43,12
7471,4,name,familiar,experiment_1,0.8981481481481481,367,D,F,32,611,43,12
7471,4,name,familiar,experiment_1,0.8981481481481481,900,D,F,32,611,43,12
7471,4,vocalization,disambiguation,experiment_1,0.39552238805970147,367,D,F,32,611,43,12
7471,4,vocalization,disambiguation,experiment_1,0.39552238805970147,900,D,F,32,611,43,12
7471,5,name,familiar,experiment_1,0.8476190476190476,2967,T,F,32,611,43,12
7471,5,name,familiar,experiment_1,0.8476190476190476,1e3,D,F,32,611,43,12
7471,5,vocalization,familiar,experiment_1,0.7972972972972973,2967,T,F,32,611,43,12
7471,5,vocalization,familiar,experiment_1,0.7972972972972973,1e3,D,F,32,611,43,12
7471,6,vocalization,familiar,experiment_1,0.5327102803738317,3233,T,F,32,611,43,12
7471,7,onomatopoeic,familiar,experiment_1,0.89,33,D,F,32,611,43,12
7471,7,onomatopoeic,familiar,experiment_1,0.89,1100,D,F,32,611,43,12
7471,7,vocalization,disambiguation,experiment_1,0.625,33,D,F,32,611,43,12
7471,7,vocalization,disambiguation,experiment_1,0.625,1100,D,F,32,611,43,12
7471,8,onomatopoeic,familiar,experiment_1,0.7058823529411765,367,T,F,32,611,43,12
7471,9,onomatopoeic,familiar,experiment_1,1,NA,T,F,32,611,43,12
7471,9,onomatopoeic,familiar,experiment_1,1,433,D,F,32,611,43,12
7471,9,vocalization,familiar,experiment_1,0.8934426229508197,NA,T,F,32,611,43,12
7471,9,vocalization,familiar,experiment_1,0.8934426229508197,433,D,F,32,611,43,12
7505,10,onomatopoeic,familiar,experiment_1,0.9,367,D,F,32,667,43,12
7505,10,onomatopoeic,familiar,experiment_1,0.9,600,T,F,32,667,43,12
7505,10,vocalization,disambiguation,experiment_1,0.23448275862068965,367,D,F,32,667,43,12
7505,10,vocalization,disambiguation,experiment_1,0.23448275862068965,600,T,F,32,667,43,12
7505,11,name,disambiguation,experiment_1,0.6990291262135923,1900,T,F,32,667,43,12
7505,11,name,disambiguation,experiment_1,0.6990291262135923,400,D,F,32,667,43,12
7505,11,vocalization,familiar,experiment_1,0.9205298013245033,1900,T,F,32,667,43,12
7505,11,vocalization,familiar,experiment_1,0.9205298013245033,400,D,F,32,667,43,12
7505,12,name,familiar,experiment_1,0.7222222222222222,1e3,D,F,32,667,43,12
7505,12,name,familiar,experiment_1,0.7222222222222222,NA,T,F,32,667,43,12
7505,12,vocalization,disambiguation,experiment_1,1,1e3,D,F,32,667,43,12
7505,12,vocalization,disambiguation,experiment_1,1,NA,T,F,32,667,43,12
7505,13,name,disambiguation,experiment_1,0.5346534653465347,400,T,F,32,667,43,12
7505,13,name,disambiguation,experiment_1,0.5346534653465347,NA,D,F,32,667,43,12
7505,13,vocalization,familiar,experiment_1,0,400,T,F,32,667,43,12
7505,13,vocalization,familiar,experiment_1,0,NA,D,F,32,667,43,12
7505,14,name,familiar,experiment_1,0.6442307692307693,1200,D,F,32,667,43,12
7505,15,name,disambiguation,experiment_1,0.49056603773584906,400,D,F,32,667,43,12
7505,16,vocalization,disambiguation,experiment_1,0.72,1400,D,F,32,667,43,12
7505,17,onomatopoeic,familiar,experiment_1,0,NA,D,F,32,667,43,12
7505,18,vocalization,familiar,experiment_1,0.2459016393442623,1800,A,F,32,667,43,12
7505,19,onomatopoeic,familiar,experiment_1,1,NA,T,F,32,667,43,12
7505,2,name,familiar,experiment_1,0.3170731707317073,700,D,F,32,667,43,12
7505,2,name,familiar,experiment_1,0.3170731707317073,3533,T,F,32,667,43,12
7505,2,vocalization,familiar,experiment_1,0.6973684210526315,700,D,F,32,667,43,12
7505,2,vocalization,familiar,experiment_1,0.6973684210526315,3533,T,F,32,667,43,12
7505,20,onomatopoeic,familiar,experiment_1,0.25333333333333335,300,T,F,32,667,43,12
7505,20,onomatopoeic,familiar,experiment_1,0.25333333333333335,133,D,F,32,667,43,12
7505,20,vocalization,familiar,experiment_1,0.45454545454545453,300,T,F,32,667,43,12
7505,20,vocalization,familiar,experiment_1,0.45454545454545453,133,D,F,32,667,43,12
7505,22,name,disambiguation,experiment_1,0.8425925925925926,3033,T,F,32,667,43,12
7505,23,name,familiar,experiment_1,0.7795275590551181,933,D,F,32,667,43,12
7505,23,name,familiar,experiment_1,0.7795275590551181,633,D,F,32,667,43,12
7505,23,vocalization,familiar,experiment_1,0.87248322147651,933,D,F,32,667,43,12
7505,23,vocalization,familiar,experiment_1,0.87248322147651,633,D,F,32,667,43,12
7505,24,name,disambiguation,experiment_1,0.8482142857142857,567,D,F,32,667,43,12
7505,25,name,familiar,experiment_1,1,NA,T,F,32,667,43,12
7505,26,name,disambiguation,experiment_1,0.7129629629629629,1033,D,F,32,667,43,12
7505,27,vocalization,disambiguation,experiment_1,0.8671875,3700,T,F,32,667,43,12
7505,3,name,familiar,experiment_1,0.7946428571428571,2967,T,F,32,667,43,12
7505,3,name,familiar,experiment_1,0.7946428571428571,NA,D,F,32,667,43,12
7505,3,vocalization,familiar,experiment_1,0,2967,T,F,32,667,43,12
7505,3,vocalization,familiar,experiment_1,0,NA,D,F,32,667,43,12
7505,4,name,familiar,experiment_1,0.7450980392156863,567,D,F,32,667,43,12
7505,4,name,familiar,experiment_1,0.7450980392156863,433,D,F,32,667,43,12
7505,4,vocalization,disambiguation,experiment_1,0.8289473684210527,567,D,F,32,667,43,12
7505,4,vocalization,disambiguation,experiment_1,0.8289473684210527,433,D,F,32,667,43,12
7505,5,name,familiar,experiment_1,0.8118811881188119,500,D,F,32,667,43,12
7505,5,name,familiar,experiment_1,0.8118811881188119,1367,T,F,32,667,43,12
7505,5,vocalization,familiar,experiment_1,0.5256410256410257,500,D,F,32,667,43,12
7505,5,vocalization,familiar,experiment_1,0.5256410256410257,1367,T,F,32,667,43,12
7505,6,vocalization,familiar,experiment_1,0.6914893617021277,2167,T,F,32,667,43,12
7505,7,onomatopoeic,familiar,experiment_1,1,NA,T,F,32,667,43,12
7505,8,onomatopoeic,familiar,experiment_1,0.8504672897196262,133,T,F,32,667,43,12
7505,9,onomatopoeic,familiar,experiment_1,0.504,1800,D,F,32,667,43,12
7505,9,onomatopoeic,familiar,experiment_1,0.504,700,D,F,32,667,43,12
7505,9,vocalization,familiar,experiment_1,0.5531914893617021,1800,D,F,32,667,43,12
7505,9,vocalization,familiar,experiment_1,0.5531914893617021,700,D,F,32,667,43,12
7508,10,vocalization,disambiguation,experiment_1,0.6319444444444444,600,T,M,31,539,38,8
7508,11,onomatopoeic,familiar,experiment_1,0.21505376344086022,667,D,M,31,539,38,8
7508,11,onomatopoeic,familiar,experiment_1,0.21505376344086022,1700,T,M,31,539,38,8
7508,11,vocalization,familiar,experiment_1,0.9172413793103448,667,D,M,31,539,38,8
7508,11,vocalization,familiar,experiment_1,0.9172413793103448,1700,T,M,31,539,38,8
7508,13,onomatopoeic,familiar,experiment_1,0.35714285714285715,1333,T,M,31,539,38,8
7508,13,onomatopoeic,familiar,experiment_1,0.35714285714285715,1133,D,M,31,539,38,8
7508,13,vocalization,familiar,experiment_1,0.524822695035461,1333,T,M,31,539,38,8
7508,13,vocalization,familiar,experiment_1,0.524822695035461,1133,D,M,31,539,38,8
7508,14,onomatopoeic,familiar,experiment_1,0.9339622641509434,267,T,M,31,539,38,8
7508,14,onomatopoeic,familiar,experiment_1,0.9339622641509434,NA,T,M,31,539,38,8
7508,14,vocalization,familiar,experiment_1,1,267,T,M,31,539,38,8
7508,14,vocalization,familiar,experiment_1,1,NA,T,M,31,539,38,8
7508,15,onomatopoeic,familiar,experiment_1,0.7913043478260869,800,D,M,31,539,38,8
7508,16,onomatopoeic,familiar,experiment_1,1,NA,T,M,31,539,38,8
7508,16,onomatopoeic,familiar,experiment_1,1,1367,T,M,31,539,38,8
7508,16,vocalization,disambiguation,experiment_1,0.9024390243902439,NA,T,M,31,539,38,8
7508,16,vocalization,disambiguation,experiment_1,0.9024390243902439,1367,T,M,31,539,38,8
7508,17,onomatopoeic,familiar,experiment_1,0.6018518518518519,67,T,M,31,539,38,8
7508,17,onomatopoeic,familiar,experiment_1,0.6018518518518519,2433,T,M,31,539,38,8
7508,17,vocalization,familiar,experiment_1,0.4866666666666667,67,T,M,31,539,38,8
7508,17,vocalization,familiar,experiment_1,0.4866666666666667,2433,T,M,31,539,38,8
7508,18,onomatopoeic,familiar,experiment_1,1,NA,T,M,31,539,38,8
7508,18,vocalization,familiar,experiment_1,1,NA,T,M,31,539,38,8
7508,19,vocalization,disambiguation,experiment_1,0.4755244755244755,1667,D,M,31,539,38,8
7508,2,name,familiar,experiment_1,0.9814814814814815,3533,T,M,31,539,38,8
7508,2,name,familiar,experiment_1,0.9814814814814815,433,D,M,31,539,38,8
7508,2,vocalization,familiar,experiment_1,0.5664335664335665,3533,T,M,31,539,38,8
7508,2,vocalization,familiar,experiment_1,0.5664335664335665,433,D,M,31,539,38,8
7508,20,name,disambiguation,experiment_1,0.8,1567,T,M,31,539,38,8
7508,20,name,disambiguation,experiment_1,0.8,2233,A,M,31,539,38,8
7508,20,vocalization,familiar,experiment_1,0.37349397590361444,1567,T,M,31,539,38,8
7508,20,vocalization,familiar,experiment_1,0.37349397590361444,2233,A,M,31,539,38,8
7508,21,name,familiar,experiment_1,0.8695652173913043,500,D,M,31,539,38,8
7508,21,name,familiar,experiment_1,0.8695652173913043,NA,A,M,31,539,38,8
7508,21,vocalization,familiar,experiment_1,1,500,D,M,31,539,38,8
7508,21,vocalization,familiar,experiment_1,1,NA,A,M,31,539,38,8
7508,23,name,familiar,experiment_1,0.765625,500,D,M,31,539,38,8
7508,23,name,familiar,experiment_1,0.765625,3333,T,M,31,539,38,8
7508,23,vocalization,familiar,experiment_1,0.5833333333333334,500,D,M,31,539,38,8
7508,23,vocalization,familiar,experiment_1,0.5833333333333334,3333,T,M,31,539,38,8
7508,24,name,disambiguation,experiment_1,0,NA,D,M,31,539,38,8
7508,24,name,disambiguation,experiment_1,0,633,D,M,31,539,38,8
7508,24,vocalization,disambiguation,experiment_1,0.4583333333333333,NA,D,M,31,539,38,8
7508,24,vocalization,disambiguation,experiment_1,0.4583333333333333,633,D,M,31,539,38,8
7508,25,vocalization,familiar,experiment_1,0.23357664233576642,1333,D,M,31,539,38,8
7508,26,vocalization,familiar,experiment_1,0.4426229508196721,1633,A,M,31,539,38,8
7508,27,vocalization,disambiguation,experiment_1,0.875,300,D,M,31,539,38,8
7508,28,name,disambiguation,experiment_1,0.2571428571428571,667,D,M,31,539,38,8
7508,28,name,disambiguation,experiment_1,0.2571428571428571,600,T,M,31,539,38,8
7508,28,vocalization,familiar,experiment_1,0.3333333333333333,667,D,M,31,539,38,8
7508,28,vocalization,familiar,experiment_1,0.3333333333333333,600,T,M,31,539,38,8
7508,29,name,familiar,experiment_1,0,NA,D,M,31,539,38,8
7508,3,name,familiar,experiment_1,0.48148148148148145,1733,T,M,31,539,38,8
7508,3,name,familiar,experiment_1,0.48148148148148145,300,T,M,31,539,38,8
7508,3,vocalization,familiar,experiment_1,0.8062015503875969,1733,T,M,31,539,38,8
7508,3,vocalization,familiar,experiment_1,0.8062015503875969,300,T,M,31,539,38,8
7508,30,name,disambiguation,experiment_1,1,NA,T,M,31,539,38,8
7508,31,name,familiar,experiment_1,0.28703703703703703,2567,D,M,31,539,38,8
7508,32,name,disambiguation,experiment_1,0.8421052631578947,500,D,M,31,539,38,8
7508,33,name,familiar,experiment_1,0.5,267,D,M,31,539,38,8
7508,4,vocalization,disambiguation,experiment_1,0.42857142857142855,933,D,M,31,539,38,8
7508,5,name,familiar,experiment_1,1,NA,T,M,31,539,38,8
7508,5,vocalization,familiar,experiment_1,1,NA,T,M,31,539,38,8
7508,6,name,familiar,experiment_1,0.7397260273972602,633,D,M,31,539,38,8
7508,7,name,familiar,experiment_1,0.9333333333333333,100,D,M,31,539,38,8
7508,7,name,familiar,experiment_1,0.9333333333333333,2733,T,M,31,539,38,8
7508,7,vocalization,disambiguation,experiment_1,0.8859060402684564,100,D,M,31,539,38,8
7508,7,vocalization,disambiguation,experiment_1,0.8859060402684564,2733,T,M,31,539,38,8
7508,9,name,familiar,experiment_1,0.056179775280898875,3433,D,M,31,539,38,8
7508,9,name,familiar,experiment_1,0.056179775280898875,767,T,M,31,539,38,8
7508,9,vocalization,familiar,experiment_1,0.725925925925926,3433,D,M,31,539,38,8
7508,9,vocalization,familiar,experiment_1,0.725925925925926,767,T,M,31,539,38,8
7549,10,onomatopoeic,familiar,experiment_1,1,NA,T,M,31,327,32,11
7549,11,vocalization,familiar,experiment_1,0.7465753424657534,3633,T,M,31,327,32,11
7549,12,vocalization,disambiguation,experiment_1,0.8581081081081081,700,D,M,31,327,32,11
7549,13,name,disambiguation,experiment_1,1,NA,T,M,31,327,32,11
7549,13,name,disambiguation,experiment_1,1,3133,D,M,31,327,32,11
7549,13,vocalization,familiar,experiment_1,0.36486486486486486,NA,T,M,31,327,32,11
7549,13,vocalization,familiar,experiment_1,0.36486486486486486,3133,D,M,31,327,32,11
7549,14,vocalization,familiar,experiment_1,0.9834710743801653,67,D,M,31,327,32,11
7549,15,name,disambiguation,experiment_1,0.3577981651376147,1300,T,M,31,327,32,11
7549,16,vocalization,disambiguation,experiment_1,0.9130434782608695,333,D,M,31,327,32,11
7549,17,vocalization,familiar,experiment_1,0,NA,D,M,31,327,32,11
7549,18,vocalization,familiar,experiment_1,0.9315068493150684,167,D,M,31,327,32,11
7549,19,vocalization,disambiguation,experiment_1,1,NA,A,M,31,327,32,11
7549,2,name,familiar,experiment_1,0.8,3333,T,M,31,327,32,11
7549,2,name,familiar,experiment_1,0.8,1500,D,M,31,327,32,11
7549,2,vocalization,familiar,experiment_1,0.7,3333,T,M,31,327,32,11
7549,2,vocalization,familiar,experiment_1,0.7,1500,D,M,31,327,32,11
7549,20,onomatopoeic,familiar,experiment_1,1,NA,T,M,31,327,32,11
7549,20,onomatopoeic,familiar,experiment_1,1,NA,D,M,31,327,32,11
7549,20,vocalization,familiar,experiment_1,0,NA,T,M,31,327,32,11
7549,20,vocalization,familiar,experiment_1,0,NA,D,M,31,327,32,11
7549,21,vocalization,familiar,experiment_1,0.5954198473282443,1767,D,M,31,327,32,11
7549,22,name,disambiguation,experiment_1,0.7875,1467,A,M,31,327,32,11
7549,23,name,familiar,experiment_1,1,NA,T,M,31,327,32,11
7549,23,name,familiar,experiment_1,1,3300,T,M,31,327,32,11
7549,23,vocalization,familiar,experiment_1,0.8229166666666666,NA,T,M,31,327,32,11
7549,23,vocalization,familiar,experiment_1,0.8229166666666666,3300,T,M,31,327,32,11
7549,24,name,disambiguation,experiment_1,0,NA,D,M,31,327,32,11
7549,24,name,disambiguation,experiment_1,0,1533,T,M,31,327,32,11
7549,24,vocalization,disambiguation,experiment_1,0.6257309941520468,NA,D,M,31,327,32,11
7549,24,vocalization,disambiguation,experiment_1,0.6257309941520468,1533,T,M,31,327,32,11
7549,25,name,familiar,experiment_1,0.4074074074074074,733,T,M,31,327,32,11
7549,25,name,familiar,experiment_1,0.4074074074074074,NA,T,M,31,327,32,11
7549,25,vocalization,familiar,experiment_1,1,733,T,M,31,327,32,11
7549,25,vocalization,familiar,experiment_1,1,NA,T,M,31,327,32,11
7549,26,vocalization,familiar,experiment_1,0.7346938775510204,4e3,T,M,31,327,32,11
7549,28,vocalization,familiar,experiment_1,1,NA,A,M,31,327,32,11
7549,3,name,familiar,experiment_1,0.8924731182795699,333,D,M,31,327,32,11
7549,3,name,familiar,experiment_1,0.8924731182795699,1133,T,M,31,327,32,11
7549,3,vocalization,familiar,experiment_1,0.22666666666666666,333,D,M,31,327,32,11
7549,3,vocalization,familiar,experiment_1,0.22666666666666666,1133,T,M,31,327,32,11
7549,4,name,familiar,experiment_1,0,NA,A,M,31,327,32,11
7549,4,name,familiar,experiment_1,0,1667,T,M,31,327,32,11
7549,4,vocalization,disambiguation,experiment_1,0.4931506849315068,NA,A,M,31,327,32,11
7549,4,vocalization,disambiguation,experiment_1,0.4931506849315068,1667,T,M,31,327,32,11
7549,5,name,familiar,experiment_1,0.43434343434343436,1433,T,M,31,327,32,11
7549,5,name,familiar,experiment_1,0.43434343434343436,1833,A,M,31,327,32,11
7549,5,vocalization,familiar,experiment_1,0.22695035460992907,1433,T,M,31,327,32,11
7549,5,vocalization,familiar,experiment_1,0.22695035460992907,1833,A,M,31,327,32,11
7549,6,vocalization,familiar,experiment_1,0.5815602836879432,1900,T,M,31,327,32,11
7549,7,onomatopoeic,familiar,experiment_1,0.7706422018348624,833,D,M,31,327,32,11
7549,7,onomatopoeic,familiar,experiment_1,0.7706422018348624,2567,D,M,31,327,32,11
7549,7,vocalization,disambiguation,experiment_1,0.3900709219858156,833,D,M,31,327,32,11
7549,7,vocalization,disambiguation,experiment_1,0.3900709219858156,2567,D,M,31,327,32,11
7549,8,onomatopoeic,familiar,experiment_1,1,NA,T,M,31,327,32,11
7549,9,vocalization,familiar,experiment_1,0.48,333,T,M,31,327,32,11
7573,10,onomatopoeic,familiar,experiment_1,0.7431192660550459,700,D,F,32,0,0,0
7573,10,onomatopoeic,familiar,experiment_1,0.7431192660550459,600,T,F,32,0,0,0
7573,10,vocalization,disambiguation,experiment_1,0.7162162162162162,700,D,F,32,0,0,0
7573,10,vocalization,disambiguation,experiment_1,0.7162162162162162,600,T,F,32,0,0,0
7573,11,name,disambiguation,experiment_1,0.3333333333333333,467,D,F,32,0,0,0
7573,11,name,disambiguation,experiment_1,0.3333333333333333,867,A,F,32,0,0,0
7573,11,vocalization,familiar,experiment_1,0.7517241379310344,467,D,F,32,0,0,0
7573,11,vocalization,familiar,experiment_1,0.7517241379310344,867,A,F,32,0,0,0
7573,12,name,familiar,experiment_1,1,NA,T,F,32,0,0,0
7573,12,name,familiar,experiment_1,1,600,T,F,32,0,0,0
7573,12,vocalization,disambiguation,experiment_1,0.831081081081081,NA,T,F,32,0,0,0
7573,12,vocalization,disambiguation,experiment_1,0.831081081081081,600,T,F,32,0,0,0
7573,13,name,disambiguation,experiment_1,0.6170212765957447,1567,T,F,32,0,0,0
7573,13,name,disambiguation,experiment_1,0.6170212765957447,900,D,F,32,0,0,0
7573,13,vocalization,familiar,experiment_1,0.8223684210526315,1567,T,F,32,0,0,0
7573,13,vocalization,familiar,experiment_1,0.8223684210526315,900,D,F,32,0,0,0
7573,14,name,familiar,experiment_1,0.41904761904761906,67,T,F,32,0,0,0
7573,14,name,familiar,experiment_1,0.41904761904761906,2767,T,F,32,0,0,0
7573,14,vocalization,familiar,experiment_1,0.5533333333333333,67,T,F,32,0,0,0
7573,14,vocalization,familiar,experiment_1,0.5533333333333333,2767,T,F,32,0,0,0
7573,15,name,disambiguation,experiment_1,1,NA,T,F,32,0,0,0
7573,16,vocalization,disambiguation,experiment_1,0.6206896551724138,600,T,F,32,0,0,0
7573,17,onomatopoeic,familiar,experiment_1,0.7706422018348624,1400,T,F,32,0,0,0
7573,17,onomatopoeic,familiar,experiment_1,0.7706422018348624,600,D,F,32,0,0,0
7573,17,vocalization,familiar,experiment_1,0.7428571428571429,1400,T,F,32,0,0,0
7573,17,vocalization,familiar,experiment_1,0.7428571428571429,600,D,F,32,0,0,0
7573,18,onomatopoeic,familiar,experiment_1,0.9140625,367,D,F,32,0,0,0
7573,18,onomatopoeic,familiar,experiment_1,0.9140625,1533,D,F,32,0,0,0
7573,18,vocalization,familiar,experiment_1,0.4014084507042254,367,D,F,32,0,0,0
7573,18,vocalization,familiar,experiment_1,0.4014084507042254,1533,D,F,32,0,0,0
7573,19,onomatopoeic,familiar,experiment_1,0.7843137254901961,1267,T,F,32,0,0,0
7573,19,onomatopoeic,familiar,experiment_1,0.7843137254901961,633,D,F,32,0,0,0
7573,19,vocalization,disambiguation,experiment_1,0.6083916083916084,1267,T,F,32,0,0,0
7573,19,vocalization,disambiguation,experiment_1,0.6083916083916084,633,D,F,32,0,0,0
7573,2,name,familiar,experiment_1,0.905511811023622,400,D,F,32,0,0,0
7573,2,name,familiar,experiment_1,0.905511811023622,933,D,F,32,0,0,0
7573,2,vocalization,familiar,experiment_1,0.8169934640522876,400,D,F,32,0,0,0
7573,2,vocalization,familiar,experiment_1,0.8169934640522876,933,D,F,32,0,0,0
7573,20,vocalization,familiar,experiment_1,0.8496732026143791,767,D,F,32,0,0,0
7573,21,vocalization,familiar,experiment_1,0.6866666666666666,3433,T,F,32,0,0,0
7573,22,name,disambiguation,experiment_1,1,NA,T,F,32,0,0,0
7573,23,name,familiar,experiment_1,0.368,1633,A,F,32,0,0,0
7573,23,name,familiar,experiment_1,0.368,1933,A,F,32,0,0,0
7573,23,vocalization,familiar,experiment_1,0.4676258992805755,1633,A,F,32,0,0,0
7573,23,vocalization,familiar,experiment_1,0.4676258992805755,1933,A,F,32,0,0,0
7573,24,name,disambiguation,experiment_1,0.39361702127659576,200,T,F,32,0,0,0
