Sub.Num,Tr.Num,cue_type,trial_type,experiment,m_prop_looking,RT,Response,target_img_type,Sex,Months,distracter_img_type,clean_target_img,GoodFirstGap,GoodRT,GoodLongestGap,gender_cdi,CDIAge,VOCAB,ANIMALS,SOUND
23444,11,vocalization,disambiguation,e2,0.4880952380952381,1400,T,nov,F,32,fam,aardvark,TRUE,TRUE,TRUE,F,32,655,42,11
23444,12,vocalization,familiar,e2,0.5185185185185185,1100,D,fam,F,32,nov,cow,TRUE,TRUE,TRUE,F,32,655,42,11
23444,13,vocalization,disambiguation,e2,0.9294117647058824,NA,T,nov,F,32,fam,capybara,NA,NA,TRUE,F,32,655,42,11
23444,14,vocalization,familiar,e2,0.746031746031746,0,T,fam,F,32,nov,sheep,TRUE,FALSE,TRUE,F,32,655,42,11
23444,15,vocalization,disambiguation,e2,0.30864197530864196,767,D,nov,F,32,fam,capybara,TRUE,TRUE,TRUE,F,32,655,42,11
23444,16,vocalization,familiar,e2,0.7529411764705882,700,D,fam,F,32,nov,sheep,TRUE,TRUE,TRUE,F,32,655,42,11
23444,17,vocalization,disambiguation,e2,0.35802469135802467,0,T,nov,F,32,fam,aardvark,TRUE,FALSE,TRUE,F,32,655,42,11
23444,18,vocalization,familiar,e2,0.6417910447761194,0,T,fam,F,32,nov,horse,FALSE,FALSE,FALSE,F,32,655,42,11
23444,2,vocalization,familiar,e2,0.07058823529411765,200,T,fam,F,32,fam,horse,TRUE,TRUE,TRUE,F,32,655,42,11
23444,21,vocalization,familiar,e2,0.7764705882352941,633,D,fam,F,32,nov,dog,TRUE,TRUE,TRUE,F,32,655,42,11
23444,22,vocalization,familiar,e2,0.2823529411764706,2100,D,fam,F,32,fam,cow,TRUE,TRUE,TRUE,F,32,655,42,11
23444,23,vocalization,retention,e2,1,NA,T,nov,F,32,nov,capybara,NA,NA,TRUE,F,32,655,42,11
23444,24,vocalization,familiar,e2,1,NA,T,fam,F,32,fam,horse,NA,NA,TRUE,F,32,655,42,11
23444,25,vocalization,retention,e2,0,NA,D,nov,F,32,nov,aardvark,NA,NA,TRUE,F,32,655,42,11
23444,29,vocalization,familiar,e2,0.9024390243902439,267,D,fam,F,32,fam,dog,TRUE,TRUE,TRUE,F,32,655,42,11
23444,3,vocalization,familiar,e2,0.7435897435897436,0,T,fam,F,32,nov,dog,TRUE,FALSE,TRUE,F,32,655,42,11
23444,34,vocalization,retention,e2,0.7407407407407407,700,D,nov,F,32,nov,aardvark,TRUE,TRUE,TRUE,F,32,655,42,11
23444,4,vocalization,familiar,e2,0.6027397260273972,1500,T,fam,F,32,nov,cow,TRUE,TRUE,TRUE,F,32,655,42,11
23444,5,vocalization,disambiguation,e2,1,NA,T,nov,F,32,fam,capybara,NA,NA,TRUE,F,32,655,42,11
23444,6,vocalization,familiar,e2,0.5308641975308642,367,T,fam,F,32,nov,horse,TRUE,TRUE,TRUE,F,32,655,42,11
23444,7,vocalization,disambiguation,e2,0.8292682926829268,133,T,nov,F,32,fam,aardvark,TRUE,TRUE,TRUE,F,32,655,42,11
23444,8,vocalization,familiar,e2,0.49206349206349204,0,T,fam,F,32,fam,cow,FALSE,FALSE,FALSE,F,32,655,42,11
23444,9,vocalization,disambiguation,e2,1,NA,T,nov,F,32,fam,capybara,NA,NA,TRUE,F,32,655,42,11
5278,11,vocalization,disambiguation,e2,0.75,0,T,nov,M,31,fam,aardvark,TRUE,FALSE,TRUE,M,31,288,16,9
5278,12,vocalization,familiar,e2,0.23076923076923078,0,T,fam,M,31,nov,cow,FALSE,FALSE,FALSE,M,31,288,16,9
5278,13,vocalization,disambiguation,e2,0.7066666666666667,0,T,nov,M,31,fam,capybara,TRUE,FALSE,TRUE,M,31,288,16,9
5278,14,vocalization,familiar,e2,0.36470588235294116,1833,D,fam,M,31,nov,sheep,TRUE,TRUE,TRUE,M,31,288,16,9
5278,15,vocalization,disambiguation,e2,1,NA,T,nov,M,31,fam,capybara,NA,NA,TRUE,M,31,288,16,9
5278,16,vocalization,familiar,e2,0.175,500,D,fam,M,31,nov,sheep,TRUE,TRUE,TRUE,M,31,288,16,9
5278,17,vocalization,disambiguation,e2,0.825,1500,T,nov,M,31,fam,aardvark,TRUE,TRUE,TRUE,M,31,288,16,9
5278,18,vocalization,familiar,e2,0.45,33,T,fam,M,31,nov,horse,TRUE,TRUE,TRUE,M,31,288,16,9
5278,19,vocalization,disambiguation,e2,1,NA,T,nov,M,31,fam,aardvark,NA,NA,TRUE,M,31,288,16,9
5278,2,vocalization,familiar,e2,0.35714285714285715,1033,T,fam,M,31,fam,horse,TRUE,TRUE,TRUE,M,31,288,16,9
5278,21,vocalization,familiar,e2,0.25,0,T,fam,M,31,nov,dog,TRUE,FALSE,TRUE,M,31,288,16,9
5278,22,vocalization,familiar,e2,0.7529411764705882,700,D,fam,M,31,fam,cow,TRUE,TRUE,TRUE,M,31,288,16,9
5278,23,vocalization,retention,e2,0,NA,D,nov,M,31,nov,capybara,NA,NA,TRUE,M,31,288,16,9
5278,24,vocalization,familiar,e2,1,NA,T,fam,M,31,fam,horse,NA,NA,TRUE,M,31,288,16,9
5278,25,vocalization,retention,e2,0.746268656716418,0,T,nov,M,31,nov,aardvark,FALSE,FALSE,FALSE,M,31,288,16,9
5278,26,vocalization,familiar,e2,0.6078431372549019,0,T,fam,M,31,fam,dog,TRUE,FALSE,TRUE,M,31,288,16,9
5278,29,vocalization,familiar,e2,0.6904761904761905,433,D,fam,M,31,fam,dog,TRUE,TRUE,FALSE,M,31,288,16,9
5278,3,vocalization,familiar,e2,0.8352941176470589,467,D,fam,M,31,nov,dog,TRUE,TRUE,TRUE,M,31,288,16,9
5278,32,vocalization,retention,e2,0.7375,233,D,nov,M,31,nov,capybara,TRUE,TRUE,TRUE,M,31,288,16,9
5278,33,vocalization,familiar,e2,0.8823529411764706,333,D,fam,M,31,fam,horse,TRUE,TRUE,TRUE,M,31,288,16,9
5278,34,vocalization,retention,e2,0.3950617283950617,500,T,nov,M,31,nov,aardvark,TRUE,TRUE,TRUE,M,31,288,16,9
5278,4,vocalization,familiar,e2,0.5616438356164384,0,T,fam,M,31,nov,cow,TRUE,FALSE,TRUE,M,31,288,16,9
5278,5,vocalization,disambiguation,e2,0.825,867,T,nov,M,31,fam,capybara,TRUE,TRUE,TRUE,M,31,288,16,9
5278,6,vocalization,familiar,e2,0.5975609756097561,967,T,fam,M,31,nov,horse,TRUE,TRUE,TRUE,M,31,288,16,9
5278,7,vocalization,disambiguation,e2,0.7764705882352941,633,D,nov,M,31,fam,aardvark,TRUE,TRUE,TRUE,M,31,288,16,9
5278,8,vocalization,familiar,e2,0.8734177215189873,333,D,fam,M,31,fam,cow,TRUE,TRUE,TRUE,M,31,288,16,9
5278,9,vocalization,disambiguation,e2,0.524390243902439,933,T,nov,M,31,fam,capybara,TRUE,TRUE,TRUE,M,31,288,16,9
6478,17,vocalization,disambiguation,e2,0.5119047619047619,0,T,nov,M,31,fam,aardvark,TRUE,FALSE,TRUE,M,31,593,43,12
6478,18,vocalization,familiar,e2,0.21666666666666667,NA,D,fam,M,31,nov,horse,NA,NA,FALSE,M,31,593,43,12
6478,19,vocalization,disambiguation,e2,0.5180722891566265,667,T,nov,M,31,fam,aardvark,TRUE,TRUE,TRUE,M,31,593,43,12
6478,2,vocalization,familiar,e2,0.75,67,D,fam,M,31,fam,horse,TRUE,TRUE,TRUE,M,31,593,43,12
6478,22,vocalization,familiar,e2,0.7903225806451613,NA,T,fam,M,31,fam,cow,NA,NA,FALSE,M,31,593,43,12
6478,23,vocalization,retention,e2,0.6024096385542169,1700,T,nov,M,31,nov,capybara,TRUE,TRUE,TRUE,M,31,593,43,12
6478,24,vocalization,familiar,e2,1,NA,T,fam,M,31,fam,horse,NA,NA,TRUE,M,31,593,43,12
6478,25,vocalization,retention,e2,0,NA,D,nov,M,31,nov,aardvark,NA,NA,TRUE,M,31,593,43,12
6478,26,vocalization,familiar,e2,0.7887323943661971,500,D,fam,M,31,fam,dog,FALSE,TRUE,FALSE,M,31,593,43,12
6478,4,vocalization,familiar,e2,0.359375,567,D,fam,M,31,nov,cow,TRUE,TRUE,FALSE,M,31,593,43,12
6478,5,vocalization,disambiguation,e2,0.8441558441558441,0,T,nov,M,31,fam,capybara,TRUE,FALSE,TRUE,M,31,593,43,12
6478,6,vocalization,familiar,e2,0.7758620689655172,NA,T,fam,M,31,nov,horse,NA,NA,FALSE,M,31,593,43,12
6478,7,vocalization,disambiguation,e2,0.425,1100,D,nov,M,31,fam,aardvark,TRUE,TRUE,TRUE,M,31,593,43,12
6478,8,vocalization,familiar,e2,1,NA,T,fam,M,31,fam,cow,NA,NA,TRUE,M,31,593,43,12
6478,9,vocalization,disambiguation,e2,0.47368421052631576,667,D,nov,M,31,fam,capybara,TRUE,TRUE,FALSE,M,31,593,43,12
6612,10,onomatopoeic,familiar,e1,0.27058823529411763,767,T,fam,M,34,fam,sheep,TRUE,TRUE,TRUE,M,34,503,42,12
6612,10,vocalization,disambiguation,e1,0.9390243902439024,NA,T,nov,M,34,fam,tapir,NA,NA,TRUE,M,34,503,42,12
6612,11,vocalization,familiar,e1,0.6470588235294118,1e3,D,fam,M,34,fam,cow,TRUE,TRUE,TRUE,M,34,503,42,12
6612,12,name,familiar,e1,0.13253012048192772,367,T,fam,M,34,nov,sheep,TRUE,TRUE,TRUE,M,34,503,42,12
6612,12,vocalization,disambiguation,e1,0.6470588235294118,1e3,D,nov,M,34,fam,pangolin,TRUE,TRUE,TRUE,M,34,503,42,12
6612,13,name,disambiguation,e1,0.3132530120481928,0,T,nov,M,34,fam,pangolin,TRUE,FALSE,TRUE,M,34,503,42,12
6612,14,name,familiar,e1,0,NA,D,fam,M,34,nov,dog,NA,NA,FALSE,M,34,503,42,12
6612,15,name,disambiguation,e1,0.22077922077922077,567,T,nov,M,34,fam,tapir,TRUE,TRUE,TRUE,M,34,503,42,12
6612,16,vocalization,disambiguation,e1,0.14545454545454545,0,T,nov,M,34,fam,pangolin,FALSE,FALSE,FALSE,M,34,503,42,12
6612,17,onomatopoeic,familiar,e1,0.07142857142857142,NA,D,fam,M,34,fam,sheep,NA,NA,TRUE,M,34,503,42,12
6612,18,onomatopoeic,familiar,e1,0.4166666666666667,1667,D,fam,M,34,fam,dog,TRUE,TRUE,TRUE,M,34,503,42,12
6612,18,vocalization,familiar,e1,0.8125,1133,T,fam,M,34,fam,horse,TRUE,TRUE,TRUE,M,34,503,42,12
6612,19,onomatopoeic,familiar,e1,0.5227272727272727,1033,D,fam,M,34,fam,cow,TRUE,TRUE,FALSE,M,34,503,42,12
6612,19,vocalization,disambiguation,e1,0.29333333333333333,733,T,nov,M,34,fam,tapir,TRUE,TRUE,TRUE,M,34,503,42,12
6612,2,name,familiar,e1,0.175,167,D,fam,M,34,fam,horse,TRUE,TRUE,TRUE,M,34,503,42,12
6612,2,vocalization,familiar,e1,0.7261904761904762,767,D,fam,M,34,fam,horse,TRUE,TRUE,TRUE,M,34,503,42,12
6612,20,onomatopoeic,familiar,e1,0.22784810126582278,0,T,fam,M,34,fam,horse,TRUE,FALSE,TRUE,M,34,503,42,12
6612,20,vocalization,familiar,e1,0.8125,767,T,fam,M,34,fam,sheep,TRUE,TRUE,FALSE,M,34,503,42,12
6612,21,vocalization,familiar,e1,0.5,1400,D,fam,M,34,nov,cow,TRUE,TRUE,TRUE,M,34,503,42,12
6612,22,name,disambiguation,e1,0.1506849315068493,367,T,nov,M,34,fam,pangolin,TRUE,TRUE,TRUE,M,34,503,42,12
6612,23,name,familiar,e1,0.6049382716049383,967,T,fam,M,34,nov,cow,TRUE,TRUE,TRUE,M,34,503,42,12
6612,23,vocalization,familiar,e1,0.746031746031746,267,T,fam,M,34,nov,horse,TRUE,TRUE,TRUE,M,34,503,42,12
6612,24,name,disambiguation,e1,0.30952380952380953,867,T,nov,M,34,fam,tapir,TRUE,TRUE,TRUE,M,34,503,42,12
6612,24,vocalization,disambiguation,e1,1,NA,T,nov,M,34,fam,tapir,NA,NA,TRUE,M,34,503,42,12
6612,25,name,familiar,e1,0.3076923076923077,467,T,fam,M,34,nov,horse,TRUE,TRUE,TRUE,M,34,503,42,12
6612,25,vocalization,familiar,e1,0.8823529411764706,333,D,fam,M,34,fam,sheep,TRUE,TRUE,TRUE,M,34,503,42,12
6612,26,vocalization,familiar,e1,0.13095238095238096,367,T,fam,M,34,nov,cow,TRUE,TRUE,TRUE,M,34,503,42,12
6612,27,vocalization,disambiguation,e1,0.7380952380952381,733,D,nov,M,34,fam,pangolin,TRUE,TRUE,TRUE,M,34,503,42,12
6612,3,name,familiar,e1,0.6197183098591549,900,D,fam,M,34,fam,sheep,TRUE,TRUE,TRUE,M,34,503,42,12
6612,3,vocalization,familiar,e1,0.5897435897435898,400,T,fam,M,34,nov,sheep,TRUE,TRUE,TRUE,M,34,503,42,12
6612,4,name,familiar,e1,0.6338028169014085,33,D,fam,M,34,fam,cow,TRUE,TRUE,TRUE,M,34,503,42,12
6612,4,vocalization,disambiguation,e1,0.4642857142857143,1533,D,nov,M,34,fam,tapir,TRUE,TRUE,TRUE,M,34,503,42,12
6612,5,name,familiar,e1,0.10714285714285714,300,T,fam,M,34,fam,dog,TRUE,TRUE,TRUE,M,34,503,42,12
6612,5,vocalization,familiar,e1,0.5432098765432098,367,T,fam,M,34,fam,dog,TRUE,TRUE,TRUE,M,34,503,42,12
6612,6,vocalization,familiar,e1,0.7710843373493976,2200,T,fam,M,34,nov,horse,TRUE,TRUE,TRUE,M,34,503,42,12
6612,7,onomatopoeic,familiar,e1,0.27586206896551724,0,T,fam,M,34,fam,horse,TRUE,FALSE,TRUE,M,34,503,42,12
6612,7,vocalization,disambiguation,e1,0.7341772151898734,200,D,nov,M,34,fam,pangolin,TRUE,TRUE,TRUE,M,34,503,42,12
6612,8,onomatopoeic,familiar,e1,0.14285714285714285,400,T,fam,M,34,fam,cow,TRUE,TRUE,TRUE,M,34,503,42,12
6612,9,onomatopoeic,familiar,e1,0.14285714285714285,400,T,fam,M,34,fam,dog,TRUE,TRUE,TRUE,M,34,503,42,12
6612,9,vocalization,familiar,e1,0.5176470588235295,1500,T,fam,M,34,nov,dog,TRUE,TRUE,TRUE,M,34,503,42,12
6685,11,vocalization,disambiguation,e2,0.30120481927710846,700,T,nov,M,30,fam,aardvark,TRUE,TRUE,TRUE,M,30,506,32,10
6685,12,vocalization,familiar,e2,1,NA,T,fam,M,30,nov,cow,NA,NA,TRUE,M,30,506,32,10
6685,13,vocalization,disambiguation,e2,0.8095238095238095,2333,T,nov,M,30,fam,capybara,TRUE,FALSE,TRUE,M,30,506,32,10
6685,14,vocalization,familiar,e2,0.5189873417721519,1333,T,fam,M,30,nov,sheep,TRUE,TRUE,TRUE,M,30,506,32,10
6685,15,vocalization,disambiguation,e2,1,NA,T,nov,M,30,fam,capybara,NA,NA,TRUE,M,30,506,32,10
6685,16,vocalization,familiar,e2,0.3157894736842105,300,D,fam,M,30,nov,sheep,TRUE,TRUE,TRUE,M,30,506,32,10
6685,17,vocalization,disambiguation,e2,0,NA,D,nov,M,30,fam,aardvark,NA,NA,TRUE,M,30,506,32,10
6685,18,vocalization,familiar,e2,0,NA,D,fam,M,30,nov,horse,NA,NA,FALSE,M,30,506,32,10
6685,19,vocalization,disambiguation,e2,0.9156626506024096,1e3,T,nov,M,30,fam,aardvark,TRUE,TRUE,TRUE,M,30,506,32,10
6685,2,vocalization,familiar,e2,0.25882352941176473,733,T,fam,M,30,fam,horse,TRUE,TRUE,TRUE,M,30,506,32,10
6685,21,vocalization,familiar,e2,0.76,400,D,fam,M,30,nov,dog,TRUE,TRUE,FALSE,M,30,506,32,10
6685,22,vocalization,familiar,e2,0.38095238095238093,1767,D,fam,M,30,fam,cow,TRUE,TRUE,TRUE,M,30,506,32,10
6685,23,vocalization,retention,e2,1,NA,T,nov,M,30,nov,capybara,NA,NA,TRUE,M,30,506,32,10
6685,24,vocalization,familiar,e2,0,NA,D,fam,M,30,fam,horse,NA,NA,TRUE,M,30,506,32,10
6685,25,vocalization,retention,e2,0.2857142857142857,2067,D,nov,M,30,nov,aardvark,TRUE,TRUE,TRUE,M,30,506,32,10
6685,26,vocalization,familiar,e2,0.9210526315789473,NA,T,fam,M,30,fam,dog,NA,NA,TRUE,M,30,506,32,10
6685,27,vocalization,retention,e2,0.323943661971831,2100,D,nov,M,30,nov,capybara,TRUE,TRUE,TRUE,M,30,506,32,10
6685,29,vocalization,familiar,e2,0.35714285714285715,1833,D,fam,M,30,fam,dog,TRUE,TRUE,TRUE,M,30,506,32,10
6685,3,vocalization,familiar,e2,0.6829268292682927,33,T,fam,M,30,nov,dog,TRUE,TRUE,TRUE,M,30,506,32,10
6685,30,vocalization,retention,e2,0.8588235294117647,400,D,nov,M,30,nov,aardvark,TRUE,TRUE,TRUE,M,30,506,32,10
6685,31,vocalization,familiar,e2,1,NA,T,fam,M,30,fam,sheep,NA,NA,TRUE,M,30,506,32,10
6685,32,vocalization,retention,e2,0,NA,D,nov,M,30,nov,capybara,NA,NA,TRUE,M,30,506,32,10
6685,33,vocalization,familiar,e2,0.35802469135802467,900,T,fam,M,30,fam,horse,TRUE,TRUE,TRUE,M,30,506,32,10
6685,34,vocalization,retention,e2,0.6785714285714286,900,D,nov,M,30,nov,aardvark,TRUE,TRUE,TRUE,M,30,506,32,10
6685,4,vocalization,familiar,e2,0.39759036144578314,1700,D,fam,M,30,nov,cow,TRUE,TRUE,TRUE,M,30,506,32,10
6685,5,vocalization,disambiguation,e2,0.8831168831168831,300,D,nov,M,30,fam,capybara,TRUE,TRUE,TRUE,M,30,506,32,10
6685,6,vocalization,familiar,e2,0.4430379746835443,1133,T,fam,M,30,nov,horse,TRUE,TRUE,TRUE,M,30,506,32,10
6685,7,vocalization,disambiguation,e2,0.5925925925925926,1133,T,nov,M,30,fam,aardvark,TRUE,TRUE,TRUE,M,30,506,32,10
6685,8,vocalization,familiar,e2,0.8235294117647058,2400,T,fam,M,30,fam,cow,TRUE,FALSE,TRUE,M,30,506,32,10
6685,9,vocalization,disambiguation,e2,0.6962025316455697,467,D,nov,M,30,fam,capybara,TRUE,TRUE,TRUE,M,30,506,32,10
6763,11,vocalization,disambiguation,e2,0,NA,D,nov,F,31,fam,aardvark,NA,NA,TRUE,F,31,349,31,10
6763,12,vocalization,familiar,e2,0.43023255813953487,1267,T,fam,F,31,nov,cow,TRUE,TRUE,TRUE,F,31,349,31,10
6763,13,vocalization,disambiguation,e2,0.37349397590361444,767,T,nov,F,31,fam,capybara,TRUE,TRUE,TRUE,F,31,349,31,10
6763,14,vocalization,familiar,e2,1,NA,T,fam,F,31,nov,sheep,NA,NA,TRUE,F,31,349,31,10
6763,15,vocalization,disambiguation,e2,0.5581395348837209,1633,T,nov,F,31,fam,capybara,TRUE,TRUE,TRUE,F,31,349,31,10
6763,16,vocalization,familiar,e2,0.38461538461538464,967,T,fam,F,31,nov,sheep,TRUE,TRUE,TRUE,F,31,349,31,10
6763,18,vocalization,familiar,e2,0,0,T,fam,F,31,nov,horse,FALSE,FALSE,FALSE,F,31,349,31,10
6763,19,vocalization,disambiguation,e2,0.5405405405405406,67,T,nov,F,31,fam,aardvark,TRUE,TRUE,TRUE,F,31,349,31,10
6763,2,vocalization,familiar,e2,0.46511627906976744,1367,T,fam,F,31,fam,horse,TRUE,TRUE,TRUE,F,31,349,31,10
6763,21,vocalization,familiar,e2,0.6808510638297872,1100,T,fam,F,31,nov,dog,TRUE,TRUE,FALSE,F,31,349,31,10
6763,22,vocalization,familiar,e2,0.24691358024691357,0,T,fam,F,31,fam,cow,TRUE,FALSE,TRUE,F,31,349,31,10
6763,23,vocalization,retention,e2,1,NA,T,nov,F,31,nov,capybara,NA,NA,TRUE,F,31,349,31,10
6763,24,vocalization,familiar,e2,1,NA,T,fam,F,31,fam,horse,NA,NA,TRUE,F,31,349,31,10
6763,25,vocalization,retention,e2,0.22972972972972974,1900,D,nov,F,31,nov,aardvark,TRUE,TRUE,TRUE,F,31,349,31,10
6763,26,vocalization,familiar,e2,0.2345679012345679,2133,D,fam,F,31,fam,dog,TRUE,TRUE,TRUE,F,31,349,31,10
6763,27,vocalization,retention,e2,1,NA,T,nov,F,31,nov,capybara,NA,NA,TRUE,F,31,349,31,10
6763,29,vocalization,familiar,e2,0.5094339622641509,667,D,fam,F,31,fam,dog,TRUE,TRUE,FALSE,F,31,349,31,10
6763,3,vocalization,familiar,e2,0.7625,533,D,fam,F,31,nov,dog,TRUE,TRUE,TRUE,F,31,349,31,10
6763,30,vocalization,retention,e2,0.6395348837209303,1067,D,nov,F,31,nov,aardvark,TRUE,TRUE,TRUE,F,31,349,31,10
6763,31,vocalization,familiar,e2,1,NA,T,fam,F,31,fam,sheep,NA,NA,TRUE,F,31,349,31,10
6763,32,vocalization,retention,e2,0.8333333333333334,NA,T,nov,F,31,nov,capybara,NA,NA,TRUE,F,31,349,31,10
6763,33,vocalization,familiar,e2,1,NA,T,fam,F,31,fam,horse,NA,NA,TRUE,F,31,349,31,10
6763,34,vocalization,retention,e2,0.6904761904761905,867,T,nov,F,31,nov,aardvark,TRUE,TRUE,TRUE,F,31,349,31,10
6763,4,vocalization,familiar,e2,0.37209302325581395,1100,T,fam,F,31,nov,cow,TRUE,TRUE,TRUE,F,31,349,31,10
6763,5,vocalization,disambiguation,e2,0.2558139534883721,733,T,nov,F,31,fam,capybara,TRUE,TRUE,TRUE,F,31,349,31,10
6763,6,vocalization,familiar,e2,0.45348837209302323,1333,T,fam,F,31,nov,horse,TRUE,TRUE,TRUE,F,31,349,31,10
6763,7,vocalization,disambiguation,e2,0,NA,D,nov,F,31,fam,aardvark,NA,NA,TRUE,F,31,349,31,10
6763,8,vocalization,familiar,e2,0,NA,D,fam,F,31,fam,cow,NA,NA,TRUE,F,31,349,31,10
6763,9,vocalization,disambiguation,e2,0.3333333333333333,1967,D,nov,F,31,fam,capybara,TRUE,TRUE,TRUE,F,31,349,31,10
6800,11,vocalization,disambiguation,e2,0.3372093023255814,1933,D,nov,F,31,fam,aardvark,TRUE,TRUE,TRUE,F,31,290,34,10
6800,12,vocalization,familiar,e2,1,NA,T,fam,F,31,nov,cow,NA,NA,FALSE,F,31,290,34,10
6800,13,vocalization,disambiguation,e2,0.5714285714285714,1633,T,nov,F,31,fam,capybara,TRUE,TRUE,TRUE,F,31,290,34,10
6800,14,vocalization,familiar,e2,0.9508196721311475,0,T,fam,F,31,nov,sheep,FALSE,FALSE,FALSE,F,31,290,34,10
6800,15,vocalization,disambiguation,e2,0.1625,1833,D,nov,F,31,fam,capybara,TRUE,TRUE,TRUE,F,31,290,34,10
6800,16,vocalization,familiar,e2,0.5416666666666666,0,T,fam,F,31,nov,sheep,TRUE,FALSE,FALSE,F,31,290,34,10
6800,17,vocalization,disambiguation,e2,0.7073170731707317,700,T,nov,F,31,fam,aardvark,TRUE,TRUE,TRUE,F,31,290,34,10
6800,2,vocalization,familiar,e2,0.4567901234567901,400,D,fam,F,31,fam,horse,TRUE,TRUE,TRUE,F,31,290,34,10
6800,21,vocalization,familiar,e2,0.5116279069767442,700,D,fam,F,31,nov,dog,FALSE,TRUE,FALSE,F,31,290,34,10
6800,22,vocalization,familiar,e2,1,NA,T,fam,F,31,fam,cow,NA,NA,FALSE,F,31,290,34,10
6800,23,vocalization,retention,e2,0.7692307692307693,0,T,nov,F,31,nov,capybara,FALSE,FALSE,FALSE,F,31,290,34,10
6800,25,vocalization,retention,e2,0.375,0,T,nov,F,31,nov,aardvark,FALSE,FALSE,FALSE,F,31,290,34,10
6800,26,vocalization,familiar,e2,0.38571428571428573,0,T,fam,F,31,fam,dog,TRUE,FALSE,TRUE,F,31,290,34,10
6800,27,vocalization,retention,e2,0,NA,D,nov,F,31,nov,capybara,NA,NA,TRUE,F,31,290,34,10
6800,29,vocalization,familiar,e2,0.5961538461538461,1300,D,fam,F,31,fam,dog,TRUE,TRUE,FALSE,F,31,290,34,10
6800,3,vocalization,familiar,e2,0.5357142857142857,1533,T,fam,F,31,nov,dog,TRUE,TRUE,TRUE,F,31,290,34,10
6800,4,vocalization,familiar,e2,0,NA,D,fam,F,31,nov,cow,NA,NA,TRUE,F,31,290,34,10
6800,5,vocalization,disambiguation,e2,0.0625,167,T,nov,F,31,fam,capybara,TRUE,TRUE,TRUE,F,31,290,34,10
6800,6,vocalization,familiar,e2,0.9647058823529412,100,D,fam,F,31,nov,horse,TRUE,TRUE,TRUE,F,31,290,34,10
6800,7,vocalization,disambiguation,e2,0.7710843373493976,400,T,nov,F,31,fam,aardvark,TRUE,TRUE,TRUE,F,31,290,34,10
6800,8,vocalization,familiar,e2,0.8888888888888888,300,D,fam,F,31,fam,cow,TRUE,TRUE,TRUE,F,31,290,34,10
6816,11,vocalization,disambiguation,e2,1,NA,T,nov,M,32,fam,aardvark,NA,NA,TRUE,M,31,581,29,10
6816,12,vocalization,familiar,e2,0.6585365853658537,1367,T,fam,M,32,nov,cow,TRUE,TRUE,TRUE,M,31,581,29,10
6816,13,vocalization,disambiguation,e2,0.7375,700,D,nov,M,32,fam,capybara,TRUE,TRUE,TRUE,M,31,581,29,10
6816,14,vocalization,familiar,e2,0.684931506849315,0,T,fam,M,32,nov,sheep,TRUE,FALSE,TRUE,M,31,581,29,10
6816,15,vocalization,disambiguation,e2,0,NA,D,nov,M,32,fam,capybara,NA,NA,TRUE,M,31,581,29,10
6816,16,vocalization,familiar,e2,0.5,1433,D,fam,M,32,nov,sheep,TRUE,TRUE,TRUE,M,31,581,29,10
6816,17,vocalization,disambiguation,e2,0.38823529411764707,1133,T,nov,M,32,fam,aardvark,TRUE,TRUE,TRUE,M,31,581,29,10
6816,18,vocalization,familiar,e2,0.6707317073170732,533,T,fam,M,32,nov,horse,TRUE,TRUE,TRUE,M,31,581,29,10
6816,19,vocalization,disambiguation,e2,0.6764705882352942,733,D,nov,M,32,fam,aardvark,TRUE,TRUE,TRUE,M,31,581,29,10
6816,2,vocalization,familiar,e2,1,NA,T,fam,M,32,fam,horse,NA,NA,TRUE,M,31,581,29,10
6816,21,vocalization,familiar,e2,0.7435897435897436,0,T,fam,M,32,nov,dog,FALSE,FALSE,FALSE,M,31,581,29,10
6816,22,vocalization,familiar,e2,0.7058823529411765,833,D,fam,M,32,fam,cow,TRUE,TRUE,TRUE,M,31,581,29,10
6816,23,vocalization,retention,e2,0.6707317073170732,1867,T,nov,M,32,nov,capybara,TRUE,TRUE,TRUE,M,31,581,29,10
6816,24,vocalization,familiar,e2,0.7564102564102564,1733,T,fam,M,32,fam,horse,TRUE,TRUE,TRUE,M,31,581,29,10
6816,25,vocalization,retention,e2,0.5176470588235295,1400,D,nov,M,32,nov,aardvark,TRUE,TRUE,TRUE,M,31,581,29,10
6816,26,vocalization,familiar,e2,1,0,T,fam,M,32,fam,dog,FALSE,FALSE,FALSE,M,31,581,29,10
6816,27,vocalization,retention,e2,0.6097560975609756,600,T,nov,M,32,nov,capybara,TRUE,TRUE,TRUE,M,31,581,29,10
6816,3,vocalization,familiar,e2,0.7764705882352941,633,D,fam,M,32,nov,dog,TRUE,TRUE,TRUE,M,31,581,29,10
6816,30,vocalization,retention,e2,0.7454545454545455,467,D,nov,M,32,nov,aardvark,TRUE,TRUE,TRUE,M,31,581,29,10
6816,31,vocalization,familiar,e2,1,NA,T,fam,M,32,fam,sheep,NA,NA,TRUE,M,31,581,29,10
6816,32,vocalization,retention,e2,0.573170731707317,1600,T,nov,M,32,nov,capybara,TRUE,TRUE,TRUE,M,31,581,29,10
6816,34,vocalization,retention,e2,0.2289156626506024,2200,D,nov,M,32,nov,aardvark,TRUE,TRUE,TRUE,M,31,581,29,10
6816,4,vocalization,familiar,e2,0.6588235294117647,0,T,fam,M,32,nov,cow,TRUE,FALSE,TRUE,M,31,581,29,10
6816,5,vocalization,disambiguation,e2,1,0,T,nov,M,32,fam,capybara,TRUE,FALSE,TRUE,M,31,581,29,10
6816,6,vocalization,familiar,e2,0.8117647058823529,533,D,fam,M,32,nov,horse,TRUE,TRUE,TRUE,M,31,581,29,10
6816,7,vocalization,disambiguation,e2,0.6235294117647059,1100,D,nov,M,32,fam,aardvark,TRUE,TRUE,TRUE,M,31,581,29,10
6816,8,vocalization,familiar,e2,0.7228915662650602,967,T,fam,M,32,fam,cow,TRUE,TRUE,TRUE,M,31,581,29,10
6816,9,vocalization,disambiguation,e2,0.8169014084507042,133,T,nov,M,32,fam,capybara,TRUE,TRUE,TRUE,M,31,581,29,10
6829,12,vocalization,familiar,e2,0.4166666666666667,1200,T,fam,M,32,nov,cow,TRUE,TRUE,TRUE,M,32,269,21,7
6829,13,vocalization,disambiguation,e2,0.6666666666666666,1367,T,nov,M,32,fam,capybara,TRUE,TRUE,TRUE,M,32,269,21,7
6829,14,vocalization,familiar,e2,0.620253164556962,467,T,fam,M,32,nov,sheep,TRUE,TRUE,TRUE,M,32,269,21,7
6829,16,vocalization,familiar,e2,0.6447368421052632,0,T,fam,M,32,nov,sheep,TRUE,FALSE,TRUE,M,32,269,21,7
6829,18,vocalization,familiar,e2,0.8518518518518519,367,T,fam,M,32,nov,horse,TRUE,TRUE,TRUE,M,32,269,21,7
6829,19,vocalization,disambiguation,e2,0.7710843373493976,0,T,nov,M,32,fam,aardvark,TRUE,FALSE,TRUE,M,32,269,21,7
6829,2,vocalization,familiar,e2,0.23170731707317074,1700,D,fam,M,32,fam,horse,TRUE,TRUE,TRUE,M,32,269,21,7
6829,25,vocalization,retention,e2,0.3561643835616438,1e3,D,nov,M,32,nov,aardvark,TRUE,TRUE,TRUE,M,32,269,21,7
6829,29,vocalization,familiar,e2,0.7560975609756098,667,D,fam,M,32,fam,dog,TRUE,TRUE,TRUE,M,32,269,21,7
6829,3,vocalization,familiar,e2,1,NA,T,fam,M,32,nov,dog,NA,NA,TRUE,M,32,269,21,7
6829,30,vocalization,retention,e2,0.9882352941176471,33,D,nov,M,32,nov,aardvark,TRUE,TRUE,TRUE,M,32,269,21,7
6829,4,vocalization,familiar,e2,0,NA,D,fam,M,32,nov,cow,NA,NA,TRUE,M,32,269,21,7
6829,5,vocalization,disambiguation,e2,0.4125,500,D,nov,M,32,fam,capybara,TRUE,TRUE,TRUE,M,32,269,21,7
6829,6,vocalization,familiar,e2,0.82,0,T,fam,M,32,nov,horse,TRUE,FALSE,FALSE,M,32,269,21,7
6829,7,vocalization,disambiguation,e2,0.8260869565217391,0,T,nov,M,32,fam,aardvark,FALSE,FALSE,FALSE,M,32,269,21,7
6829,9,vocalization,disambiguation,e2,1,0,T,nov,M,32,fam,capybara,TRUE,FALSE,FALSE,M,32,269,21,7
6835,10,vocalization,disambiguation,e2,0.6235294117647059,1100,D,nov,M,31,fam,capybara,TRUE,TRUE,TRUE,NA,NA,NA,NA,NA
6835,11,vocalization,familiar,e2,0.4523809523809524,1567,D,fam,M,31,nov,horse,TRUE,TRUE,TRUE,NA,NA,NA,NA,NA
6835,13,vocalization,familiar,e2,0,0,T,fam,M,31,fam,cow,FALSE,FALSE,FALSE,NA,NA,NA,NA,NA
6835,14,vocalization,disambiguation,e2,0.6352941176470588,1067,D,nov,M,31,fam,capybara,TRUE,TRUE,TRUE,NA,NA,NA,NA,NA
6835,16,vocalization,disambiguation,e2,0.6785714285714286,0,T,nov,M,31,fam,aardvark,TRUE,FALSE,TRUE,NA,NA,NA,NA,NA
6835,20,vocalization,disambiguation,e2,0.7261904761904762,267,T,nov,M,31,fam,capybara,TRUE,TRUE,TRUE,NA,NA,NA,NA,NA
6835,34,vocalization,familiar,e2,0.5849056603773585,733,D,fam,M,31,fam,dog,TRUE,TRUE,FALSE,NA,NA,NA,NA,NA
6835,35,vocalization,retention,e2,0,0,T,nov,M,31,nov,aardvark,FALSE,FALSE,FALSE,NA,NA,NA,NA,NA
6835,36,vocalization,familiar,e2,0.6190476190476191,867,T,fam,M,31,fam,sheep,TRUE,TRUE,FALSE,NA,NA,NA,NA,NA
6835,37,vocalization,retention,e2,0.11627906976744186,0,T,nov,M,31,nov,capybara,FALSE,FALSE,FALSE,NA,NA,NA,NA,NA
6835,39,vocalization,retention,e2,0,0,T,nov,M,31,nov,aardvark,FALSE,FALSE,FALSE,NA,NA,NA,NA,NA
6835,7,vocalization,familiar,e2,0.30120481927710846,0,T,fam,M,31,fam,horse,TRUE,FALSE,TRUE,NA,NA,NA,NA,NA
6835,8,vocalization,familiar,e2,0.43902439024390244,1233,T,fam,M,31,nov,dog,TRUE,TRUE,TRUE,NA,NA,NA,NA,NA
6835,9,vocalization,familiar,e2,0.07142857142857142,233,D,fam,M,31,nov,cow,TRUE,TRUE,TRUE,NA,NA,NA,NA,NA
6851,12,vocalization,familiar,e2,1,NA,T,fam,F,31,nov,cow,NA,NA,TRUE,F,30,547,31,12
6851,13,vocalization,disambiguation,e2,0.47560975609756095,700,T,nov,F,31,fam,capybara,TRUE,TRUE,TRUE,F,30,547,31,12
6851,15,vocalization,disambiguation,e2,0.6097560975609756,0,T,nov,F,31,fam,capybara,TRUE,FALSE,TRUE,F,30,547,31,12
6851,16,vocalization,familiar,e2,1,NA,T,fam,F,31,nov,sheep,NA,NA,TRUE,F,30,547,31,12
6851,18,vocalization,familiar,e2,0.8970588235294118,0,T,fam,F,31,nov,horse,FALSE,FALSE,FALSE,F,30,547,31,12
6851,19,vocalization,disambiguation,e2,0.7777777777777778,1133,T,nov,F,31,fam,aardvark,TRUE,TRUE,TRUE,F,30,547,31,12
6851,2,vocalization,familiar,e2,0,NA,D,fam,F,31,fam,horse,NA,NA,TRUE,F,30,547,31,12
6851,21,vocalization,familiar,e2,0.8292682926829268,233,D,fam,F,31,nov,dog,TRUE,TRUE,FALSE,F,30,547,31,12
6851,22,vocalization,familiar,e2,1,NA,T,fam,F,31,fam,cow,NA,NA,TRUE,F,30,547,31,12
6851,23,vocalization,retention,e2,0.4444444444444444,0,T,nov,F,31,nov,capybara,TRUE,FALSE,TRUE,F,30,547,31,12
6851,24,vocalization,familiar,e2,0.9411764705882353,NA,T,fam,F,31,fam,horse,NA,NA,TRUE,F,30,547,31,12
6851,25,vocalization,retention,e2,0.6547619047619048,0,T,nov,F,31,nov,aardvark,TRUE,FALSE,TRUE,F,30,547,31,12
6851,26,vocalization,familiar,e2,0.8571428571428571,400,D,fam,F,31,fam,dog,TRUE,TRUE,TRUE,F,30,547,31,12
6851,27,vocalization,retention,e2,0.75,700,D,nov,F,31,nov,capybara,TRUE,TRUE,TRUE,F,30,547,31,12
6851,3,vocalization,familiar,e2,0.6144578313253012,1733,T,fam,F,31,nov,dog,TRUE,TRUE,TRUE,F,30,547,31,12
6851,30,vocalization,retention,e2,0.44,0,T,nov,F,31,nov,aardvark,FALSE,FALSE,FALSE,F,30,547,31,12
6851,31,vocalization,familiar,e2,0.7857142857142857,600,D,fam,F,31,fam,sheep,TRUE,TRUE,TRUE,F,30,547,31,12
6851,32,vocalization,retention,e2,0.10666666666666667,1e3,D,nov,F,31,nov,capybara,TRUE,TRUE,TRUE,F,30,547,31,12
6851,33,vocalization,familiar,e2,0.8148148148148148,0,T,fam,F,31,fam,horse,TRUE,FALSE,TRUE,F,30,547,31,12
6851,34,vocalization,retention,e2,0.8767123287671232,300,D,nov,F,31,nov,aardvark,TRUE,TRUE,TRUE,F,30,547,31,12
6851,4,vocalization,familiar,e2,0.9411764705882353,167,D,fam,F,31,nov,cow,TRUE,TRUE,TRUE,F,30,547,31,12
6851,5,vocalization,disambiguation,e2,0.8028169014084507,133,D,nov,F,31,fam,capybara,TRUE,TRUE,TRUE,F,30,547,31,12
6851,6,vocalization,familiar,e2,0.8,500,D,fam,F,31,nov,horse,TRUE,TRUE,TRUE,F,30,547,31,12
6851,7,vocalization,disambiguation,e2,0.7647058823529411,667,D,nov,F,31,fam,aardvark,TRUE,TRUE,TRUE,F,30,547,31,12
6851,8,vocalization,familiar,e2,1,NA,T,fam,F,31,fam,cow,NA,NA,TRUE,F,30,547,31,12
6854,11,vocalization,disambiguation,e2,1,NA,T,nov,F,31,fam,aardvark,NA,NA,TRUE,F,31,548,36,10
6854,12,vocalization,familiar,e2,0.6166666666666667,0,T,fam,F,31,nov,cow,FALSE,FALSE,FALSE,F,31,548,36,10
6854,13,vocalization,disambiguation,e2,0.25882352941176473,2167,D,nov,F,31,fam,capybara,TRUE,TRUE,TRUE,F,31,548,36,10
6854,14,vocalization,familiar,e2,0.5813953488372093,1233,D,fam,F,31,nov,sheep,TRUE,TRUE,TRUE,F,31,548,36,10
6854,15,vocalization,disambiguation,e2,0.5647058823529412,1267,D,nov,F,31,fam,capybara,TRUE,TRUE,TRUE,F,31,548,36,10
6854,16,vocalization,familiar,e2,1,NA,T,fam,F,31,nov,sheep,NA,NA,TRUE,F,31,548,36,10
6854,17,vocalization,disambiguation,e2,0.875,0,T,nov,F,31,fam,aardvark,TRUE,FALSE,FALSE,F,31,548,36,10
6854,18,vocalization,familiar,e2,0.44155844155844154,1467,D,fam,F,31,nov,horse,TRUE,TRUE,TRUE,F,31,548,36,10
6854,19,vocalization,disambiguation,e2,0.6867469879518072,1933,T,nov,F,31,fam,aardvark,TRUE,TRUE,TRUE,F,31,548,36,10
6854,2,vocalization,familiar,e2,0.611764705882353,1767,T,fam,F,31,fam,horse,TRUE,TRUE,TRUE,F,31,548,36,10
6854,21,vocalization,familiar,e2,0.4810126582278481,33,T,fam,F,31,nov,dog,TRUE,TRUE,TRUE,F,31,548,36,10
6854,22,vocalization,familiar,e2,0.8658536585365854,33,T,fam,F,31,fam,cow,TRUE,TRUE,TRUE,F,31,548,36,10
6854,23,vocalization,retention,e2,0.25675675675675674,1867,D,nov,F,31,nov,capybara,TRUE,TRUE,TRUE,F,31,548,36,10
6854,24,vocalization,familiar,e2,0.375,1700,D,fam,F,31,fam,horse,TRUE,TRUE,TRUE,F,31,548,36,10
6854,25,vocalization,retention,e2,0.7764705882352941,2267,T,nov,F,31,nov,aardvark,TRUE,FALSE,TRUE,F,31,548,36,10
6854,26,vocalization,familiar,e2,0.17857142857142858,500,T,fam,F,31,fam,dog,TRUE,TRUE,TRUE,F,31,548,36,10
6854,27,vocalization,retention,e2,1,NA,T,nov,F,31,nov,capybara,NA,NA,TRUE,F,31,548,36,10
6854,29,vocalization,familiar,e2,0.8028169014084507,533,T,fam,F,31,fam,dog,TRUE,TRUE,TRUE,F,31,548,36,10
6854,3,vocalization,familiar,e2,0.5853658536585366,100,D,fam,F,31,nov,dog,TRUE,TRUE,TRUE,F,31,548,36,10
6854,30,vocalization,retention,e2,0,NA,D,nov,F,31,nov,aardvark,NA,NA,TRUE,F,31,548,36,10
6854,31,vocalization,familiar,e2,0.7432432432432432,633,D,fam,F,31,fam,sheep,TRUE,TRUE,TRUE,F,31,548,36,10
6854,32,vocalization,retention,e2,1,NA,T,nov,F,31,nov,capybara,NA,NA,TRUE,F,31,548,36,10
6854,33,vocalization,familiar,e2,0.38372093023255816,1133,T,fam,F,31,fam,horse,TRUE,TRUE,TRUE,F,31,548,36,10
6854,34,vocalization,retention,e2,0.16455696202531644,200,T,nov,F,31,nov,aardvark,TRUE,TRUE,TRUE,F,31,548,36,10
6854,4,vocalization,familiar,e2,1,0,T,fam,F,31,nov,cow,TRUE,FALSE,TRUE,F,31,548,36,10
6854,5,vocalization,disambiguation,e2,1,NA,T,nov,F,31,fam,capybara,NA,NA,TRUE,F,31,548,36,10
6854,6,vocalization,familiar,e2,0.5647058823529412,1267,D,fam,F,31,nov,horse,TRUE,TRUE,TRUE,F,31,548,36,10
6854,7,vocalization,disambiguation,e2,0,NA,D,nov,F,31,fam,aardvark,NA,NA,TRUE,F,31,548,36,10
6854,8,vocalization,familiar,e2,0.6744186046511628,933,D,fam,F,31,fam,cow,TRUE,TRUE,TRUE,F,31,548,36,10
6854,9,vocalization,disambiguation,e2,1,NA,T,nov,F,31,fam,capybara,NA,NA,TRUE,F,31,548,36,10
6858,11,vocalization,disambiguation,e2,0.5176470588235295,1500,T,nov,M,32,fam,aardvark,TRUE,TRUE,TRUE,M,31,551,37,12
6858,12,vocalization,familiar,e2,1,NA,T,fam,M,32,nov,cow,NA,NA,TRUE,M,31,551,37,12
6858,13,vocalization,disambiguation,e2,0.8205128205128205,1667,T,nov,M,32,fam,capybara,TRUE,TRUE,TRUE,M,31,551,37,12
6858,14,vocalization,familiar,e2,0.2261904761904762,2233,D,fam,M,32,nov,sheep,TRUE,FALSE,TRUE,M,31,551,37,12
6858,15,vocalization,disambiguation,e2,0.25609756097560976,333,D,nov,M,32,fam,capybara,TRUE,TRUE,TRUE,M,31,551,37,12
6858,16,vocalization,familiar,e2,0.4810126582278481,100,D,fam,M,32,nov,sheep,TRUE,TRUE,TRUE,M,31,551,37,12
6858,17,vocalization,disambiguation,e2,0.3176470588235294,900,T,nov,M,32,fam,aardvark,TRUE,TRUE,TRUE,M,31,551,37,12
6858,18,vocalization,familiar,e2,0.75,700,D,fam,M,32,nov,horse,TRUE,TRUE,TRUE,M,31,551,37,12
6858,19,vocalization,disambiguation,e2,1,NA,T,nov,M,32,fam,aardvark,NA,NA,TRUE,M,31,551,37,12
6858,2,vocalization,familiar,e2,0.788235294117647,2300,T,fam,M,32,fam,horse,TRUE,FALSE,TRUE,M,31,551,37,12
6858,21,vocalization,familiar,e2,0.620253164556962,533,D,fam,M,32,nov,dog,TRUE,TRUE,TRUE,M,31,551,37,12
6858,22,vocalization,familiar,e2,1,NA,T,fam,M,32,fam,cow,NA,NA,TRUE,M,31,551,37,12
6858,23,vocalization,retention,e2,0.6375,733,T,nov,M,32,nov,capybara,TRUE,TRUE,TRUE,M,31,551,37,12
6858,24,vocalization,familiar,e2,0.5365853658536586,367,D,fam,M,32,fam,horse,TRUE,TRUE,TRUE,M,31,551,37,12
6858,25,vocalization,retention,e2,0.8117647058823529,533,D,nov,M,32,nov,aardvark,TRUE,TRUE,TRUE,M,31,551,37,12
6858,26,vocalization,familiar,e2,0.9285714285714286,200,D,fam,M,32,fam,dog,TRUE,TRUE,TRUE,M,31,551,37,12
6858,29,vocalization,familiar,e2,0.36585365853658536,1667,D,fam,M,32,fam,dog,TRUE,TRUE,TRUE,M,31,551,37,12
6858,3,vocalization,familiar,e2,0.6941176470588235,2033,T,fam,M,32,nov,dog,TRUE,TRUE,TRUE,M,31,551,37,12
6858,30,vocalization,retention,e2,1,NA,T,nov,M,32,nov,aardvark,NA,NA,TRUE,M,31,551,37,12
6858,32,vocalization,retention,e2,0,NA,D,nov,M,32,nov,capybara,NA,NA,TRUE,M,31,551,37,12
6858,33,vocalization,familiar,e2,1,NA,T,fam,M,32,fam,horse,NA,NA,TRUE,M,31,551,37,12
6858,34,vocalization,retention,e2,0,NA,D,nov,M,32,nov,aardvark,NA,NA,TRUE,M,31,551,37,12
6858,4,vocalization,familiar,e2,0.47619047619047616,1500,D,fam,M,32,nov,cow,TRUE,TRUE,TRUE,M,31,551,37,12
6858,5,vocalization,disambiguation,e2,0.8941176470588236,300,D,nov,M,32,fam,capybara,TRUE,TRUE,TRUE,M,31,551,37,12
6858,6,vocalization,familiar,e2,0,0,T,fam,M,32,nov,horse,TRUE,FALSE,TRUE,M,31,551,37,12
6858,7,vocalization,disambiguation,e2,0.7926829268292683,833,T,nov,M,32,fam,aardvark,TRUE,TRUE,TRUE,M,31,551,37,12
6858,8,vocalization,familiar,e2,0.8235294117647058,500,D,fam,M,32,fam,cow,TRUE,TRUE,TRUE,M,31,551,37,12
6858,9,vocalization,disambiguation,e2,0.8170731707317073,133,T,nov,M,32,fam,capybara,TRUE,TRUE,TRUE,M,31,551,37,12
6893,12,vocalization,familiar,e2,0.47435897435897434,1167,T,fam,F,31,nov,cow,TRUE,TRUE,TRUE,F,30,532,43,10
6893,13,vocalization,disambiguation,e2,0.4583333333333333,933,T,nov,F,31,fam,capybara,TRUE,TRUE,TRUE,F,30,532,43,10
6893,14,vocalization,familiar,e2,0.5348837209302325,1567,T,fam,F,31,nov,sheep,TRUE,TRUE,TRUE,F,30,532,43,10
6893,15,vocalization,disambiguation,e2,0,NA,D,nov,F,31,fam,capybara,NA,NA,TRUE,F,30,532,43,10
6893,16,vocalization,familiar,e2,1,NA,T,fam,F,31,nov,sheep,NA,NA,TRUE,F,30,532,43,10
6893,17,vocalization,disambiguation,e2,0.6578947368421053,333,D,nov,F,31,fam,aardvark,TRUE,TRUE,TRUE,F,30,532,43,10
6893,2,vocalization,familiar,e2,0.6,1167,D,fam,F,31,fam,horse,TRUE,TRUE,TRUE,F,30,532,43,10
6893,22,vocalization,familiar,e2,0.6515151515151515,0,T,fam,F,31,fam,cow,FALSE,FALSE,FALSE,F,30,532,43,10
6893,23,vocalization,retention,e2,0.36619718309859156,1700,D,nov,F,31,nov,capybara,TRUE,TRUE,TRUE,F,30,532,43,10
6893,24,vocalization,familiar,e2,0.5714285714285714,1133,T,fam,F,31,fam,horse,TRUE,TRUE,TRUE,F,30,532,43,10
6893,25,vocalization,retention,e2,0.27848101265822783,1300,D,nov,F,31,nov,aardvark,TRUE,TRUE,TRUE,F,30,532,43,10
6893,27,vocalization,retention,e2,0.6585365853658537,1467,T,nov,F,31,nov,capybara,TRUE,TRUE,TRUE,F,30,532,43,10
6893,29,vocalization,familiar,e2,0.7176470588235294,2100,T,fam,F,31,fam,dog,TRUE,TRUE,TRUE,F,30,532,43,10
6893,3,vocalization,familiar,e2,0.7023809523809523,833,D,fam,F,31,nov,dog,TRUE,TRUE,TRUE,F,30,532,43,10
6893,30,vocalization,retention,e2,0.28378378378378377,1800,D,nov,F,31,nov,aardvark,TRUE,TRUE,TRUE,F,30,532,43,10
6893,34,vocalization,retention,e2,0,NA,D,nov,F,31,nov,aardvark,NA,NA,TRUE,F,30,532,43,10
6893,4,vocalization,familiar,e2,0.5476190476190477,700,D,fam,F,31,nov,cow,TRUE,TRUE,TRUE,F,30,532,43,10
6893,5,vocalization,disambiguation,e2,0.7108433734939759,2033,T,nov,F,31,fam,capybara,TRUE,TRUE,TRUE,F,30,532,43,10
6893,6,vocalization,familiar,e2,0.27380952380952384,2100,D,fam,F,31,nov,horse,TRUE,TRUE,TRUE,F,30,532,43,10
6893,7,vocalization,disambiguation,e2,0.6621621621621622,0,T,nov,F,31,fam,aardvark,TRUE,FALSE,TRUE,F,30,532,43,10
6893,9,vocalization,disambiguation,e2,0.8,367,T,nov,F,31,fam,capybara,TRUE,TRUE,TRUE,F,30,532,43,10
6896,10,vocalization,disambiguation,e2,0.5316455696202531,567,D,nov,F,31,fam,capybara,TRUE,TRUE,TRUE,F,30,376,28,8
6896,11,vocalization,familiar,e2,0.3058823529411765,867,T,fam,F,31,nov,horse,TRUE,TRUE,TRUE,F,30,376,28,8
6896,12,vocalization,disambiguation,e2,0.4268292682926829,633,D,nov,F,31,fam,aardvark,TRUE,TRUE,TRUE,F,30,376,28,8
6896,13,vocalization,familiar,e2,1,NA,T,fam,F,31,fam,cow,NA,NA,FALSE,F,30,376,28,8
6896,14,vocalization,disambiguation,e2,0.24390243902439024,1200,D,nov,F,31,fam,capybara,TRUE,TRUE,TRUE,F,30,376,28,8
6896,16,vocalization,disambiguation,e2,0.660377358490566,0,T,nov,F,31,fam,aardvark,FALSE,FALSE,FALSE,F,30,376,28,8
6896,17,vocalization,familiar,e2,0.7209302325581395,2133,T,fam,F,31,nov,cow,TRUE,TRUE,TRUE,F,30,376,28,8
6896,19,vocalization,familiar,e2,0.5783132530120482,1633,T,fam,F,31,nov,sheep,TRUE,TRUE,TRUE,F,30,376,28,8
6896,20,vocalization,disambiguation,e2,0.4,1167,T,nov,F,31,fam,capybara,TRUE,TRUE,TRUE,F,30,376,28,8
6896,22,vocalization,disambiguation,e2,0.7160493827160493,0,T,nov,F,31,fam,aardvark,TRUE,FALSE,TRUE,F,30,376,28,8
6896,23,vocalization,familiar,e2,0.6842105263157895,800,D,fam,F,31,nov,horse,TRUE,TRUE,TRUE,F,30,376,28,8
6896,26,vocalization,familiar,e2,0.35294117647058826,0,T,fam,F,31,nov,dog,TRUE,FALSE,TRUE,F,30,376,28,8
6896,27,vocalization,familiar,e2,0.7735849056603774,1467,T,fam,F,31,fam,cow,TRUE,TRUE,FALSE,F,30,376,28,8
6896,28,vocalization,retention,e2,0.691358024691358,900,T,nov,F,31,nov,capybara,TRUE,TRUE,TRUE,F,30,376,28,8
6896,29,vocalization,familiar,e2,0,NA,D,fam,F,31,fam,horse,NA,NA,TRUE,F,30,376,28,8
6896,30,vocalization,retention,e2,0,NA,D,nov,F,31,nov,aardvark,NA,NA,FALSE,F,30,376,28,8
6896,32,vocalization,retention,e2,0.5625,0,T,nov,F,31,nov,capybara,FALSE,FALSE,FALSE,F,30,376,28,8
6896,34,vocalization,familiar,e2,0,NA,D,fam,F,31,fam,dog,NA,NA,TRUE,F,30,376,28,8
6896,35,vocalization,retention,e2,0.4634146341463415,233,D,nov,F,31,nov,aardvark,TRUE,TRUE,TRUE,F,30,376,28,8
6896,36,vocalization,familiar,e2,1,NA,T,fam,F,31,fam,sheep,NA,NA,TRUE,F,30,376,28,8
6896,37,vocalization,retention,e2,0,0,T,nov,F,31,nov,capybara,TRUE,FALSE,FALSE,F,30,376,28,8
6896,7,vocalization,familiar,e2,0.4125,1067,D,fam,F,31,fam,horse,TRUE,TRUE,TRUE,F,30,376,28,8
6896,8,vocalization,familiar,e2,0.24705882352941178,700,T,fam,F,31,nov,dog,TRUE,TRUE,TRUE,F,30,376,28,8
6896,9,vocalization,familiar,e2,0.9518072289156626,NA,T,fam,F,31,nov,cow,NA,NA,TRUE,F,30,376,28,8
6915,11,vocalization,disambiguation,e2,0.75,0,T,nov,F,32,fam,aardvark,FALSE,FALSE,FALSE,F,32,663,42,12
6915,12,vocalization,familiar,e2,0.5365853658536586,33,D,fam,F,32,nov,cow,TRUE,TRUE,FALSE,F,32,663,42,12
6915,13,vocalization,disambiguation,e2,0.16901408450704225,0,T,nov,F,32,fam,capybara,TRUE,FALSE,TRUE,F,32,663,42,12
6915,14,vocalization,familiar,e2,0.6909090909090909,0,T,fam,F,32,nov,sheep,FALSE,FALSE,FALSE,F,32,663,42,12
6915,15,vocalization,disambiguation,e2,0.5,0,T,nov,F,32,fam,capybara,TRUE,FALSE,FALSE,F,32,663,42,12
6915,16,vocalization,familiar,e2,0.4266666666666667,0,T,fam,F,32,nov,sheep,TRUE,FALSE,TRUE,F,32,663,42,12
6915,18,vocalization,familiar,e2,0.38235294117647056,0,T,fam,F,32,nov,horse,FALSE,FALSE,FALSE,F,32,663,42,12
6915,2,vocalization,familiar,e2,0.52,200,T,fam,F,32,fam,horse,TRUE,TRUE,TRUE,F,32,663,42,12
6915,21,vocalization,familiar,e2,0.43478260869565216,533,D,fam,F,32,nov,dog,TRUE,TRUE,TRUE,F,32,663,42,12
6915,22,vocalization,familiar,e2,0.47619047619047616,533,D,fam,F,32,fam,cow,TRUE,TRUE,TRUE,F,32,663,42,12
6915,23,vocalization,retention,e2,0.32558139534883723,933,T,nov,F,32,nov,capybara,TRUE,TRUE,TRUE,F,32,663,42,12
6915,25,vocalization,retention,e2,0.08139534883720931,233,T,nov,F,32,nov,aardvark,TRUE,TRUE,TRUE,F,32,663,42,12
6915,27,vocalization,retention,e2,1,0,T,nov,F,32,nov,capybara,FALSE,FALSE,FALSE,F,32,663,42,12
6915,29,vocalization,familiar,e2,0.43243243243243246,667,D,fam,F,32,fam,dog,TRUE,TRUE,TRUE,F,32,663,42,12
6915,3,vocalization,familiar,e2,0.3875,600,D,fam,F,32,nov,dog,TRUE,TRUE,TRUE,F,32,663,42,12
6915,30,vocalization,retention,e2,0.6578947368421053,400,T,nov,F,32,nov,aardvark,TRUE,TRUE,TRUE,F,32,663,42,12
6915,31,vocalization,familiar,e2,0.4,333,T,fam,F,32,fam,sheep,TRUE,TRUE,FALSE,F,32,663,42,12
6915,4,vocalization,familiar,e2,0.3780487804878049,1033,T,fam,F,32,nov,cow,TRUE,TRUE,TRUE,F,32,663,42,12
6915,5,vocalization,disambiguation,e2,0.8414634146341463,267,T,nov,F,32,fam,capybara,TRUE,TRUE,TRUE,F,32,663,42,12
6915,6,vocalization,familiar,e2,0.3924050632911392,633,D,fam,F,32,nov,horse,TRUE,TRUE,TRUE,F,32,663,42,12
6915,7,vocalization,disambiguation,e2,0.6455696202531646,167,T,nov,F,32,fam,aardvark,TRUE,TRUE,TRUE,F,32,663,42,12
6915,8,vocalization,familiar,e2,0.527027027027027,433,D,fam,F,32,fam,cow,TRUE,TRUE,TRUE,F,32,663,42,12
6915,9,vocalization,disambiguation,e2,0.43209876543209874,333,D,nov,F,32,fam,capybara,TRUE,TRUE,TRUE,F,32,663,42,12
6921,11,vocalization,disambiguation,e2,1,NA,T,nov,F,32,fam,aardvark,NA,NA,FALSE,F,32,654,43,12
6921,12,vocalization,familiar,e2,0.49056603773584906,900,D,fam,F,32,nov,cow,TRUE,TRUE,FALSE,F,32,654,43,12
6921,13,vocalization,disambiguation,e2,0.6309523809523809,1800,T,nov,F,32,fam,capybara,TRUE,TRUE,TRUE,F,32,654,43,12
6921,14,vocalization,familiar,e2,0.611764705882353,1133,D,fam,F,32,nov,sheep,TRUE,TRUE,TRUE,F,32,654,43,12
6921,15,vocalization,disambiguation,e2,0,NA,D,nov,F,32,fam,capybara,NA,NA,FALSE,F,32,654,43,12
6921,16,vocalization,familiar,e2,0,NA,D,fam,F,32,nov,sheep,NA,NA,TRUE,F,32,654,43,12
6921,18,vocalization,familiar,e2,1,NA,T,fam,F,32,nov,horse,NA,NA,TRUE,F,32,654,43,12
6921,19,vocalization,disambiguation,e2,0.6097560975609756,1100,D,nov,F,32,fam,aardvark,TRUE,TRUE,TRUE,F,32,654,43,12
6921,2,vocalization,familiar,e2,0.7976190476190477,2300,T,fam,F,32,fam,horse,TRUE,FALSE,TRUE,F,32,654,43,12
6921,21,vocalization,familiar,e2,1,NA,T,fam,F,32,nov,dog,NA,NA,FALSE,F,32,654,43,12
6921,22,vocalization,familiar,e2,0.9565217391304348,0,T,fam,F,32,fam,cow,TRUE,FALSE,TRUE,F,32,654,43,12
6921,23,vocalization,retention,e2,1,NA,T,nov,F,32,nov,capybara,NA,NA,FALSE,F,32,654,43,12
6921,24,vocalization,familiar,e2,1,NA,T,fam,F,32,fam,horse,NA,NA,TRUE,F,32,654,43,12
6921,25,vocalization,retention,e2,1,NA,T,nov,F,32,nov,aardvark,NA,NA,TRUE,F,32,654,43,12
6921,29,vocalization,familiar,e2,0.746031746031746,1600,T,fam,F,32,fam,dog,TRUE,TRUE,TRUE,F,32,654,43,12
6921,3,vocalization,familiar,e2,0.3333333333333333,833,D,fam,F,32,nov,dog,TRUE,TRUE,TRUE,F,32,654,43,12
6921,30,vocalization,retention,e2,0,NA,D,nov,F,32,nov,aardvark,NA,NA,TRUE,F,32,654,43,12
6921,4,vocalization,familiar,e2,0.3372093023255814,1933,D,fam,F,32,nov,cow,TRUE,TRUE,TRUE,F,32,654,43,12
6921,5,vocalization,disambiguation,e2,0.575,500,D,nov,F,32,fam,capybara,TRUE,TRUE,TRUE,F,32,654,43,12
6921,6,vocalization,familiar,e2,0.8674698795180723,233,D,fam,F,32,nov,horse,TRUE,TRUE,TRUE,F,32,654,43,12
6921,7,vocalization,disambiguation,e2,0.8148148148148148,1367,T,nov,F,32,fam,aardvark,TRUE,TRUE,TRUE,F,32,654,43,12
6921,8,vocalization,familiar,e2,0.696969696969697,1567,T,fam,F,32,fam,cow,TRUE,TRUE,TRUE,F,32,654,43,12
6921,9,vocalization,disambiguation,e2,1,NA,T,nov,F,32,fam,capybara,NA,NA,FALSE,F,32,654,43,12
6950,11,vocalization,disambiguation,e2,0.6582278481012658,300,T,nov,M,31,fam,aardvark,TRUE,TRUE,TRUE,NA,NA,NA,NA,NA
6950,12,vocalization,familiar,e2,0.5875,1567,T,fam,M,31,nov,cow,TRUE,TRUE,TRUE,NA,NA,NA,NA,NA
6950,13,vocalization,disambiguation,e2,1,0,T,nov,M,31,fam,capybara,FALSE,FALSE,FALSE,NA,NA,NA,NA,NA
6950,14,vocalization,familiar,e2,0.7164179104477612,0,T,fam,M,31,nov,sheep,TRUE,FALSE,TRUE,NA,NA,NA,NA,NA
6950,15,vocalization,disambiguation,e2,1,NA,T,nov,M,31,fam,capybara,NA,NA,TRUE,NA,NA,NA,NA,NA
6950,16,vocalization,familiar,e2,0.7647058823529411,667,D,fam,M,31,nov,sheep,TRUE,TRUE,TRUE,NA,NA,NA,NA,NA
6950,18,vocalization,familiar,e2,0,0,T,fam,M,31,nov,horse,TRUE,FALSE,FALSE,NA,NA,NA,NA,NA
6950,19,vocalization,disambiguation,e2,0.8524590163934426,0,T,nov,M,31,fam,aardvark,FALSE,FALSE,FALSE,NA,NA,NA,NA,NA
6950,2,vocalization,familiar,e2,0.34177215189873417,1400,D,fam,M,31,fam,horse,TRUE,TRUE,TRUE,NA,NA,NA,NA,NA
6950,21,vocalization,familiar,e2,0.7073170731707317,100,T,fam,M,31,nov,dog,TRUE,TRUE,TRUE,NA,NA,NA,NA,NA
6950,22,vocalization,familiar,e2,0.8095238095238095,533,D,fam,M,31,fam,cow,TRUE,TRUE,TRUE,NA,NA,NA,NA,NA
6950,23,vocalization,retention,e2,0.36231884057971014,0,T,nov,M,31,nov,capybara,TRUE,FALSE,TRUE,NA,NA,NA,NA,NA
6950,24,vocalization,familiar,e2,0.8705882352941177,367,D,fam,M,31,fam,horse,TRUE,TRUE,TRUE,NA,NA,NA,NA,NA
6950,25,vocalization,retention,e2,0.6341463414634146,0,T,nov,M,31,nov,aardvark,TRUE,FALSE,TRUE,NA,NA,NA,NA,NA
6950,27,vocalization,retention,e2,0.6352941176470588,1833,T,nov,M,31,nov,capybara,TRUE,TRUE,TRUE,NA,NA,NA,NA,NA
6950,29,vocalization,familiar,e2,1,NA,T,fam,M,31,fam,dog,NA,NA,FALSE,NA,NA,NA,NA,NA
6950,3,vocalization,familiar,e2,0.7894736842105263,133,T,fam,M,31,nov,dog,TRUE,TRUE,TRUE,NA,NA,NA,NA,NA
6950,31,vocalization,familiar,e2,0.7560975609756098,0,T,fam,M,31,fam,sheep,FALSE,FALSE,FALSE,NA,NA,NA,NA,NA
6950,32,vocalization,retention,e2,0.4444444444444444,167,T,nov,M,31,nov,capybara,TRUE,TRUE,TRUE,NA,NA,NA,NA,NA
6950,33,vocalization,familiar,e2,0.3026315789473684,267,T,fam,M,31,fam,horse,TRUE,TRUE,TRUE,NA,NA,NA,NA,NA
6950,4,vocalization,familiar,e2,0.7926829268292683,0,T,fam,M,31,nov,cow,TRUE,FALSE,TRUE,NA,NA,NA,NA,NA
6950,5,vocalization,disambiguation,e2,0.5,1300,D,nov,M,31,fam,capybara,TRUE,TRUE,TRUE,NA,NA,NA,NA,NA
6950,6,vocalization,familiar,e2,0.7790697674418605,633,D,fam,M,31,nov,horse,TRUE,TRUE,TRUE,NA,NA,NA,NA,NA
6950,7,vocalization,disambiguation,e2,1,NA,T,nov,M,31,fam,aardvark,NA,NA,TRUE,NA,NA,NA,NA,NA
6950,8,vocalization,familiar,e2,0.8255813953488372,500,D,fam,M,31,fam,cow,TRUE,TRUE,TRUE,NA,NA,NA,NA,NA
6950,9,vocalization,disambiguation,e2,0.4146341463414634,233,T,nov,M,31,fam,capybara,TRUE,TRUE,TRUE,NA,NA,NA,NA,NA
6975,11,vocalization,disambiguation,e2,0.7857142857142857,2267,T,nov,F,30,fam,aardvark,TRUE,FALSE,TRUE,F,30,476,31,11
6975,12,vocalization,familiar,e2,1,NA,T,fam,F,30,nov,cow,NA,NA,FALSE,F,30,476,31,11
6975,13,vocalization,disambiguation,e2,1,NA,T,nov,F,30,fam,capybara,NA,NA,FALSE,F,30,476,31,11
6975,14,vocalization,familiar,e2,0.6909090909090909,33,D,fam,F,30,nov,sheep,TRUE,TRUE,TRUE,F,30,476,31,11
6975,2,vocalization,familiar,e2,0.5875,1067,D,fam,F,30,fam,horse,TRUE,TRUE,TRUE,F,30,476,31,11
6975,23,vocalization,retention,e2,0.5,133,T,nov,F,30,nov,capybara,TRUE,TRUE,TRUE,F,30,476,31,11
6975,24,vocalization,familiar,e2,1,NA,T,fam,F,30,fam,horse,NA,NA,FALSE,F,30,476,31,11
6975,3,vocalization,familiar,e2,0.7857142857142857,600,D,fam,F,30,nov,dog,TRUE,TRUE,TRUE,F,30,476,31,11
6975,30,vocalization,retention,e2,1,NA,T,nov,F,30,nov,aardvark,NA,NA,TRUE,F,30,476,31,11
6975,32,vocalization,retention,e2,0.5217391304347826,333,D,nov,F,30,nov,capybara,TRUE,TRUE,TRUE,F,30,476,31,11
6975,33,vocalization,familiar,e2,1,0,T,fam,F,30,fam,horse,TRUE,FALSE,TRUE,F,30,476,31,11
6975,34,vocalization,retention,e2,0.5897435897435898,100,D,nov,F,30,nov,aardvark,TRUE,TRUE,TRUE,F,30,476,31,11
6975,4,vocalization,familiar,e2,0.5119047619047619,1400,D,fam,F,30,nov,cow,TRUE,TRUE,TRUE,F,30,476,31,11
6975,5,vocalization,disambiguation,e2,1,NA,T,nov,F,30,fam,capybara,NA,NA,TRUE,F,30,476,31,11
6975,6,vocalization,familiar,e2,0.7721518987341772,433,T,fam,F,30,nov,horse,TRUE,TRUE,TRUE,F,30,476,31,11
6975,7,vocalization,disambiguation,e2,0.7738095238095238,2233,T,nov,F,30,fam,aardvark,TRUE,FALSE,TRUE,F,30,476,31,11
6975,9,vocalization,disambiguation,e2,0.7125,0,T,nov,F,30,fam,capybara,TRUE,FALSE,TRUE,F,30,476,31,11
7001,11,vocalization,disambiguation,e2,0.4666666666666667,767,D,nov,M,30,fam,aardvark,TRUE,TRUE,TRUE,M,30,404,34,10
7001,12,vocalization,familiar,e2,0.5,1400,T,fam,M,30,nov,cow,TRUE,TRUE,TRUE,M,30,404,34,10
7001,13,vocalization,disambiguation,e2,0,NA,D,nov,M,30,fam,capybara,NA,NA,TRUE,M,30,404,34,10
7001,14,vocalization,familiar,e2,0.5609756097560976,1233,D,fam,M,30,nov,sheep,TRUE,TRUE,TRUE,M,30,404,34,10
7001,15,vocalization,disambiguation,e2,0,NA,D,nov,M,30,fam,capybara,NA,NA,TRUE,M,30,404,34,10
7001,16,vocalization,familiar,e2,1,NA,T,fam,M,30,nov,sheep,NA,NA,TRUE,M,30,404,34,10
7001,17,vocalization,disambiguation,e2,0.44155844155844154,667,D,nov,M,30,fam,aardvark,TRUE,TRUE,TRUE,M,30,404,34,10
7001,18,vocalization,familiar,e2,0.6987951807228916,1967,T,fam,M,30,nov,horse,TRUE,TRUE,TRUE,M,30,404,34,10
7001,19,vocalization,disambiguation,e2,0.8717948717948718,0,T,nov,M,30,fam,aardvark,TRUE,FALSE,TRUE,M,30,404,34,10
7001,2,vocalization,familiar,e2,1,NA,T,fam,M,30,fam,horse,NA,NA,TRUE,M,30,404,34,10
7001,21,vocalization,familiar,e2,0.6463414634146342,1800,T,fam,M,30,nov,dog,TRUE,TRUE,TRUE,M,30,404,34,10
7001,22,vocalization,familiar,e2,0.963855421686747,100,D,fam,M,30,fam,cow,TRUE,TRUE,TRUE,M,30,404,34,10
7001,23,vocalization,retention,e2,0.10126582278481013,NA,D,nov,M,30,nov,capybara,NA,NA,TRUE,M,30,404,34,10
7001,24,vocalization,familiar,e2,0,NA,D,fam,M,30,fam,horse,NA,NA,TRUE,M,30,404,34,10
7001,25,vocalization,retention,e2,0.5121951219512195,1433,T,nov,M,30,nov,aardvark,TRUE,TRUE,TRUE,M,30,404,34,10
7001,26,vocalization,familiar,e2,0.313953488372093,900,T,fam,M,30,fam,dog,TRUE,TRUE,TRUE,M,30,404,34,10
7001,29,vocalization,familiar,e2,0.4805194805194805,0,T,fam,M,30,fam,dog,TRUE,FALSE,TRUE,M,30,404,34,10
7001,3,vocalization,familiar,e2,0.5180722891566265,1467,T,fam,M,30,nov,dog,TRUE,TRUE,TRUE,M,30,404,34,10
7001,30,vocalization,retention,e2,0.23076923076923078,67,T,nov,M,30,nov,aardvark,TRUE,TRUE,TRUE,M,30,404,34,10
7001,31,vocalization,familiar,e2,1,0,T,fam,M,30,fam,sheep,FALSE,FALSE,FALSE,M,30,404,34,10
7001,33,vocalization,familiar,e2,0.2948717948717949,1367,D,fam,M,30,fam,horse,TRUE,TRUE,TRUE,M,30,404,34,10
7001,4,vocalization,familiar,e2,0,NA,D,fam,M,30,nov,cow,NA,NA,TRUE,M,30,404,34,10
7001,5,vocalization,disambiguation,e2,0.012195121951219513,NA,D,nov,M,30,fam,capybara,NA,NA,TRUE,M,30,404,34,10
7001,6,vocalization,familiar,e2,0.6506024096385542,0,T,fam,M,30,nov,horse,TRUE,FALSE,TRUE,M,30,404,34,10
7001,7,vocalization,disambiguation,e2,0,NA,D,nov,M,30,fam,aardvark,NA,NA,FALSE,M,30,404,34,10
7001,8,vocalization,familiar,e2,0.27631578947368424,200,D,fam,M,30,fam,cow,TRUE,TRUE,TRUE,M,30,404,34,10
7001,9,vocalization,disambiguation,e2,0.525,600,D,nov,M,30,fam,capybara,TRUE,TRUE,TRUE,M,30,404,34,10
7020,11,vocalization,disambiguation,e2,0.4166666666666667,1200,T,nov,F,30,fam,aardvark,TRUE,TRUE,TRUE,NA,NA,NA,NA,NA
7020,12,vocalization,familiar,e2,0.12048192771084337,333,T,fam,F,30,nov,cow,TRUE,TRUE,TRUE,NA,NA,NA,NA,NA
7020,13,vocalization,disambiguation,e2,0.6296296296296297,33,D,nov,F,30,fam,capybara,TRUE,TRUE,TRUE,NA,NA,NA,NA,NA
7020,17,vocalization,disambiguation,e2,0,NA,D,nov,F,30,fam,aardvark,NA,NA,TRUE,NA,NA,NA,NA,NA
7020,18,vocalization,familiar,e2,0.3972602739726027,0,T,fam,F,30,nov,horse,TRUE,FALSE,TRUE,NA,NA,NA,NA,NA
7020,2,vocalization,familiar,e2,0,NA,D,fam,F,30,fam,horse,NA,NA,TRUE,NA,NA,NA,NA,NA
7020,21,vocalization,familiar,e2,0.6582278481012658,1767,T,fam,F,30,nov,dog,TRUE,TRUE,TRUE,NA,NA,NA,NA,NA
7020,22,vocalization,familiar,e2,0.10843373493975904,300,T,fam,F,30,fam,cow,TRUE,TRUE,TRUE,NA,NA,NA,NA,NA
7020,23,vocalization,retention,e2,0.5301204819277109,1333,D,nov,F,30,nov,capybara,TRUE,TRUE,TRUE,NA,NA,NA,NA,NA
7020,25,vocalization,retention,e2,0,NA,D,nov,F,30,nov,aardvark,NA,NA,TRUE,NA,NA,NA,NA,NA
7020,3,vocalization,familiar,e2,0.5783132530120482,1200,D,fam,F,30,nov,dog,TRUE,TRUE,TRUE,NA,NA,NA,NA,NA
7020,30,vocalization,retention,e2,0,0,T,nov,F,30,nov,aardvark,FALSE,FALSE,FALSE,NA,NA,NA,NA,NA
7020,4,vocalization,familiar,e2,1,NA,T,fam,F,30,nov,cow,NA,NA,TRUE,NA,NA,NA,NA,NA
7020,5,vocalization,disambiguation,e2,0.7073170731707317,33,T,nov,F,30,fam,capybara,TRUE,TRUE,TRUE,NA,NA,NA,NA,NA
7020,6,vocalization,familiar,e2,0.5058823529411764,1467,T,fam,F,30,nov,horse,TRUE,TRUE,TRUE,NA,NA,NA,NA,NA
7020,7,vocalization,disambiguation,e2,0.9512195121951219,133,D,nov,F,30,fam,aardvark,TRUE,TRUE,TRUE,NA,NA,NA,NA,NA
7020,8,vocalization,familiar,e2,1,NA,T,fam,F,30,fam,cow,NA,NA,TRUE,NA,NA,NA,NA,NA
7040,11,vocalization,disambiguation,e2,0.7058823529411765,833,D,nov,M,32,fam,aardvark,TRUE,TRUE,TRUE,M,31,643,39,12
7040,12,vocalization,familiar,e2,0.47560975609756095,1033,T,fam,M,32,nov,cow,TRUE,TRUE,TRUE,M,31,643,39,12
7040,13,vocalization,disambiguation,e2,0.6463414634146342,1100,T,nov,M,32,fam,capybara,TRUE,TRUE,TRUE,M,31,643,39,12
7040,14,vocalization,familiar,e2,1,0,T,fam,M,32,nov,sheep,TRUE,FALSE,FALSE,M,31,643,39,12
7040,15,vocalization,disambiguation,e2,0.4166666666666667,1667,D,nov,M,32,fam,capybara,TRUE,TRUE,TRUE,M,31,643,39,12
7040,16,vocalization,familiar,e2,0.23333333333333334,0,T,fam,M,32,nov,sheep,FALSE,FALSE,FALSE,M,31,643,39,12
7040,17,vocalization,disambiguation,e2,0.6511627906976745,1e3,D,nov,M,32,fam,aardvark,TRUE,TRUE,TRUE,M,31,643,39,12
7040,18,vocalization,familiar,e2,0.036585365853658534,0,T,fam,M,32,nov,horse,TRUE,FALSE,TRUE,M,31,643,39,12
7040,19,vocalization,disambiguation,e2,0.7317073170731707,1300,T,nov,M,32,fam,aardvark,TRUE,TRUE,TRUE,M,31,643,39,12
7040,2,vocalization,familiar,e2,0,NA,D,fam,M,32,fam,horse,NA,NA,TRUE,M,31,643,39,12
7040,21,vocalization,familiar,e2,0.5679012345679012,0,T,fam,M,32,nov,dog,TRUE,FALSE,TRUE,M,31,643,39,12
7040,22,vocalization,familiar,e2,0.5365853658536586,1300,T,fam,M,32,fam,cow,TRUE,TRUE,TRUE,M,31,643,39,12
7040,24,vocalization,familiar,e2,0.6129032258064516,0,T,fam,M,32,fam,horse,FALSE,FALSE,FALSE,M,31,643,39,12
7040,25,vocalization,retention,e2,0.5714285714285714,1233,D,nov,M,32,nov,aardvark,TRUE,TRUE,TRUE,M,31,643,39,12
7040,26,vocalization,familiar,e2,0.863013698630137,2133,T,fam,M,32,fam,dog,TRUE,TRUE,TRUE,M,31,643,39,12
7040,29,vocalization,familiar,e2,0.8928571428571429,300,D,fam,M,32,fam,dog,TRUE,TRUE,TRUE,M,31,643,39,12
7040,3,vocalization,familiar,e2,1,NA,T,fam,M,32,nov,dog,NA,NA,TRUE,M,31,643,39,12
7040,30,vocalization,retention,e2,0.8289473684210527,433,D,nov,M,32,nov,aardvark,TRUE,TRUE,TRUE,M,31,643,39,12
7040,31,vocalization,familiar,e2,0.6086956521739131,633,T,fam,M,32,fam,sheep,TRUE,TRUE,TRUE,M,31,643,39,12
7040,33,vocalization,familiar,e2,0.20238095238095238,567,T,fam,M,32,fam,horse,TRUE,TRUE,TRUE,M,31,643,39,12
7040,34,vocalization,retention,e2,0.7903225806451613,0,T,nov,M,32,nov,aardvark,TRUE,FALSE,TRUE,M,31,643,39,12
7040,4,vocalization,familiar,e2,1,NA,T,fam,M,32,nov,cow,NA,NA,TRUE,M,31,643,39,12
7040,5,vocalization,disambiguation,e2,0.7058823529411765,833,D,nov,M,32,fam,capybara,TRUE,TRUE,TRUE,M,31,643,39,12
7040,6,vocalization,familiar,e2,0.7941176470588235,1333,T,fam,M,32,nov,horse,TRUE,TRUE,TRUE,M,31,643,39,12
7040,8,vocalization,familiar,e2,0.7777777777777778,1500,T,fam,M,32,fam,cow,TRUE,TRUE,TRUE,M,31,643,39,12
7040,9,vocalization,disambiguation,e2,0.6329113924050633,0,T,nov,M,32,fam,capybara,TRUE,FALSE,TRUE,M,31,643,39,12
7077,11,vocalization,disambiguation,e2,0.8433734939759037,NA,T,nov,M,31,fam,aardvark,NA,NA,TRUE,M,31,653,37,12
7077,12,vocalization,familiar,e2,0.25,0,T,fam,M,31,nov,cow,FALSE,FALSE,FALSE,M,31,653,37,12
7077,16,vocalization,familiar,e2,0.7176470588235294,2100,T,fam,M,31,nov,sheep,TRUE,TRUE,TRUE,M,31,653,37,12
7077,18,vocalization,familiar,e2,0.4423076923076923,0,T,fam,M,31,nov,horse,FALSE,FALSE,FALSE,M,31,653,37,12
7077,19,vocalization,disambiguation,e2,0.6071428571428571,0,T,nov,M,31,fam,aardvark,TRUE,FALSE,TRUE,M,31,653,37,12
7077,2,vocalization,familiar,e2,0.9047619047619048,NA,T,fam,M,31,fam,horse,NA,NA,TRUE,M,31,653,37,12
7077,25,vocalization,retention,e2,0.9583333333333334,0,T,nov,M,31,nov,aardvark,FALSE,FALSE,FALSE,M,31,653,37,12
7077,26,vocalization,familiar,e2,0.375,0,T,fam,M,31,fam,dog,FALSE,FALSE,FALSE,M,31,653,37,12
7077,27,vocalization,retention,e2,1,0,T,nov,M,31,nov,capybara,FALSE,FALSE,FALSE,M,31,653,37,12
7077,3,vocalization,familiar,e2,0.6271186440677966,733,D,fam,M,31,nov,dog,TRUE,TRUE,TRUE,M,31,653,37,12
7077,30,vocalization,retention,e2,0.8372093023255814,467,D,nov,M,31,nov,aardvark,TRUE,TRUE,TRUE,M,31,653,37,12
7077,31,vocalization,familiar,e2,0.5476190476190477,733,D,fam,M,31,fam,sheep,TRUE,TRUE,TRUE,M,31,653,37,12
7077,32,vocalization,retention,e2,0.9666666666666667,67,D,nov,M,31,nov,capybara,TRUE,TRUE,TRUE,M,31,653,37,12
7077,6,vocalization,familiar,e2,0,NA,D,fam,M,31,nov,horse,NA,NA,TRUE,M,31,653,37,12
7077,7,vocalization,disambiguation,e2,0.6265060240963856,267,T,nov,M,31,fam,aardvark,TRUE,TRUE,TRUE,M,31,653,37,12
7077,8,vocalization,familiar,e2,0.9347826086956522,100,D,fam,M,31,fam,cow,TRUE,TRUE,FALSE,M,31,653,37,12
7077,9,vocalization,disambiguation,e2,0.7,0,T,nov,M,31,fam,capybara,TRUE,FALSE,FALSE,M,31,653,37,12
7383,10,vocalization,disambiguation,e1,0.7631578947368421,367,T,nov,M,34,fam,pangolin,TRUE,TRUE,TRUE,NA,NA,NA,NA,NA
7383,11,onomatopoeic,familiar,e1,0.35714285714285715,1833,D,fam,M,32,fam,dog,TRUE,TRUE,TRUE,NA,NA,NA,NA,NA
7383,11,vocalization,familiar,e1,0,NA,D,fam,M,34,fam,cow,NA,NA,TRUE,NA,NA,NA,NA,NA
7383,12,onomatopoeic,familiar,e1,0.6790123456790124,433,D,fam,M,32,fam,horse,TRUE,TRUE,TRUE,NA,NA,NA,NA,NA
7383,12,vocalization,disambiguation,e1,0.6987951807228916,833,D,nov,M,34,fam,tapir,TRUE,TRUE,TRUE,NA,NA,NA,NA,NA
7383,13,onomatopoeic,familiar,e1,1,NA,T,fam,M,32,fam,cow,NA,NA,TRUE,NA,NA,NA,NA,NA
7383,13,vocalization,familiar,e1,0.7764705882352941,633,D,fam,M,34,fam,cow,TRUE,TRUE,TRUE,NA,NA,NA,NA,NA
7383,14,onomatopoeic,familiar,e1,0.7341772151898734,700,D,fam,M,32,fam,sheep,TRUE,TRUE,TRUE,NA,NA,NA,NA,NA
7383,14,vocalization,familiar,e1,0.8902439024390244,300,D,fam,M,34,nov,sheep,TRUE,TRUE,TRUE,NA,NA,NA,NA,NA
7383,15,onomatopoeic,familiar,e1,0.8470588235294118,433,D,fam,M,32,fam,dog,TRUE,TRUE,TRUE,NA,NA,NA,NA,NA
7383,16,onomatopoeic,familiar,e1,0.75,33,T,fam,M,32,fam,horse,TRUE,TRUE,TRUE,NA,NA,NA,NA,NA
7383,16,vocalization,disambiguation,e1,0.44047619047619047,1600,D,nov,M,34,fam,tapir,TRUE,TRUE,TRUE,NA,NA,NA,NA,NA
7383,17,onomatopoeic,familiar,e1,0.64,600,D,fam,M,32,fam,cow,TRUE,TRUE,FALSE,NA,NA,NA,NA,NA
7383,17,vocalization,familiar,e1,0.6666666666666666,267,T,fam,M,34,nov,dog,TRUE,TRUE,TRUE,NA,NA,NA,NA,NA
7383,18,vocalization,familiar,e1,0.6176470588235294,0,T,fam,M,34,fam,horse,TRUE,FALSE,TRUE,NA,NA,NA,NA,NA
7383,19,vocalization,disambiguation,e1,1,NA,T,nov,M,34,fam,pangolin,NA,NA,TRUE,NA,NA,NA,NA,NA
7383,2,name,familiar,e1,1,NA,T,fam,M,32,fam,cow,NA,NA,TRUE,NA,NA,NA,NA,NA
7383,20,name,disambiguation,e1,0.8953488372093024,300,D,nov,M,32,fam,pangolin,TRUE,TRUE,TRUE,NA,NA,NA,NA,NA
7383,20,vocalization,familiar,e1,0.8902439024390244,300,D,fam,M,34,fam,sheep,TRUE,TRUE,TRUE,NA,NA,NA,NA,NA
7383,21,name,familiar,e1,0.8023255813953488,567,D,fam,M,32,nov,cow,TRUE,TRUE,TRUE,NA,NA,NA,NA,NA
7383,21,vocalization,familiar,e1,0.6428571428571429,1033,D,fam,M,34,nov,cow,TRUE,TRUE,TRUE,NA,NA,NA,NA,NA
7383,22,name,disambiguation,e1,0.6097560975609756,500,T,nov,M,32,fam,tapir,TRUE,TRUE,TRUE,NA,NA,NA,NA,NA
7383,23,name,familiar,e1,0.9642857142857143,100,D,fam,M,32,nov,dog,TRUE,TRUE,TRUE,NA,NA,NA,NA,NA
7383,23,vocalization,familiar,e1,0.6329113924050633,1200,T,fam,M,34,nov,horse,TRUE,TRUE,TRUE,NA,NA,NA,NA,NA
7383,24,name,disambiguation,e1,0.7710843373493976,200,T,nov,M,32,fam,tapir,TRUE,TRUE,TRUE,NA,NA,NA,NA,NA
7383,24,vocalization,disambiguation,e1,1,NA,T,nov,M,34,fam,pangolin,NA,NA,TRUE,NA,NA,NA,NA,NA
7383,25,name,familiar,e1,0.8941176470588236,300,D,fam,M,32,nov,sheep,TRUE,TRUE,TRUE,NA,NA,NA,NA,NA
7383,25,vocalization,familiar,e1,0.8024691358024691,533,D,fam,M,34,fam,sheep,TRUE,TRUE,TRUE,NA,NA,NA,NA,NA
7383,26,name,disambiguation,e1,0.390625,0,T,nov,M,32,fam,tapir,FALSE,FALSE,FALSE,NA,NA,NA,NA,NA
7383,26,vocalization,familiar,e1,0.8354430379746836,33,T,fam,M,34,nov,cow,TRUE,TRUE,TRUE,NA,NA,NA,NA,NA
7383,27,vocalization,disambiguation,e1,1,NA,T,nov,M,34,fam,tapir,NA,NA,TRUE,NA,NA,NA,NA,NA
7383,28,name,disambiguation,e1,0.7261904761904762,0,T,nov,M,32,fam,pangolin,TRUE,FALSE,TRUE,NA,NA,NA,NA,NA
7383,28,vocalization,familiar,e1,0.6987951807228916,833,D,fam,M,34,fam,dog,TRUE,TRUE,TRUE,NA,NA,NA,NA,NA
7383,29,name,familiar,e1,1,NA,T,fam,M,32,nov,dog,NA,NA,TRUE,NA,NA,NA,NA,NA
7383,3,name,familiar,e1,0.8823529411764706,333,D,fam,M,32,fam,dog,TRUE,TRUE,TRUE,NA,NA,NA,NA,NA
7383,30,name,disambiguation,e1,0.6585365853658537,367,T,nov,M,32,fam,pangolin,TRUE,TRUE,TRUE,NA,NA,NA,NA,NA
7383,31,name,familiar,e1,0.8604651162790697,400,D,fam,M,32,nov,horse,TRUE,TRUE,TRUE,NA,NA,NA,NA,NA
7383,32,name,disambiguation,e1,0.8048780487804879,267,T,nov,M,32,fam,tapir,TRUE,TRUE,TRUE,NA,NA,NA,NA,NA
7383,33,name,familiar,e1,0.6705882352941176,933,D,fam,M,32,nov,sheep,TRUE,TRUE,TRUE,NA,NA,NA,NA,NA
7383,34,name,disambiguation,e1,0.7558139534883721,700,D,nov,M,32,fam,pangolin,TRUE,TRUE,TRUE,NA,NA,NA,NA,NA
7383,4,name,familiar,e1,1,NA,T,fam,M,32,fam,sheep,NA,NA,TRUE,NA,NA,NA,NA,NA
7383,5,name,familiar,e1,0.7647058823529411,667,D,fam,M,32,fam,horse,TRUE,TRUE,TRUE,NA,NA,NA,NA,NA
7383,5,vocalization,familiar,e1,0.5142857142857142,967,D,fam,M,34,fam,dog,TRUE,TRUE,FALSE,NA,NA,NA,NA,NA
7383,6,name,familiar,e1,0.46511627906976744,1567,D,fam,M,32,fam,sheep,TRUE,TRUE,TRUE,NA,NA,NA,NA,NA
7383,6,vocalization,familiar,e1,0.11904761904761904,NA,D,fam,M,34,nov,horse,NA,NA,FALSE,NA,NA,NA,NA,NA
7383,7,name,familiar,e1,0.8658536585365854,300,T,fam,M,32,fam,horse,TRUE,TRUE,TRUE,NA,NA,NA,NA,NA
7383,7,vocalization,disambiguation,e1,0.7469879518072289,2133,T,nov,M,34,fam,tapir,TRUE,TRUE,TRUE,NA,NA,NA,NA,NA
7383,8,name,familiar,e1,0.8292682926829268,300,T,fam,M,32,fam,cow,TRUE,TRUE,TRUE,NA,NA,NA,NA,NA
7383,9,name,familiar,e1,0.8023255813953488,567,D,fam,M,32,fam,dog,TRUE,TRUE,TRUE,NA,NA,NA,NA,NA
7383,9,vocalization,familiar,e1,0.18666666666666668,33,T,fam,M,34,nov,dog,TRUE,TRUE,TRUE,NA,NA,NA,NA,NA
7409,10,vocalization,disambiguation,e1,0.76,567,D,nov,F,32,fam,tapir,TRUE,TRUE,TRUE,F,31,433,31,2
7409,11,onomatopoeic,familiar,e1,0.48484848484848486,33,T,fam,F,31,fam,dog,TRUE,TRUE,FALSE,F,31,433,31,2
7409,11,vocalization,familiar,e1,0.8048780487804879,533,D,fam,F,32,fam,cow,TRUE,TRUE,TRUE,F,31,433,31,2
7409,12,onomatopoeic,familiar,e1,0.43548387096774194,167,T,fam,F,31,fam,horse,TRUE,TRUE,TRUE,F,31,433,31,2
7409,12,vocalization,disambiguation,e1,0.7407407407407407,700,D,nov,F,32,fam,pangolin,TRUE,TRUE,TRUE,F,31,433,31,2
7409,13,onomatopoeic,familiar,e1,0.6470588235294118,1e3,D,fam,F,31,fam,cow,TRUE,TRUE,TRUE,F,31,433,31,2
7409,14,onomatopoeic,familiar,e1,0.5064935064935064,1300,D,fam,F,31,fam,sheep,TRUE,TRUE,TRUE,F,31,433,31,2
7409,15,onomatopoeic,familiar,e1,0.4883720930232558,733,D,fam,F,31,fam,dog,TRUE,TRUE,FALSE,F,31,433,31,2
7409,16,vocalization,disambiguation,e1,1,NA,T,nov,F,32,fam,pangolin,NA,NA,TRUE,F,31,433,31,2
7409,17,vocalization,familiar,e1,0.7228915662650602,767,D,fam,F,32,nov,dog,TRUE,TRUE,TRUE,F,31,433,31,2
7409,18,onomatopoeic,familiar,e1,0.7375,0,T,fam,F,31,fam,sheep,TRUE,FALSE,TRUE,F,31,433,31,2
7409,18,vocalization,familiar,e1,0.95,67,D,fam,F,32,fam,horse,TRUE,TRUE,FALSE,F,31,433,31,2
7409,19,vocalization,disambiguation,e1,0.6382978723404256,1033,T,nov,F,32,fam,tapir,TRUE,TRUE,FALSE,F,31,433,31,2
7409,2,name,familiar,e1,0.6904761904761905,1967,T,fam,F,31,fam,cow,TRUE,TRUE,TRUE,F,31,433,31,2
7409,2,vocalization,familiar,e1,0.5384615384615384,1333,T,fam,F,32,fam,horse,TRUE,TRUE,TRUE,F,31,433,31,2
7409,20,name,disambiguation,e1,0.6823529411764706,900,D,nov,F,31,fam,pangolin,TRUE,TRUE,TRUE,F,31,433,31,2
7409,20,vocalization,familiar,e1,0,NA,D,fam,F,32,fam,sheep,NA,NA,FALSE,F,31,433,31,2
7409,21,vocalization,familiar,e1,1,NA,T,fam,F,32,nov,cow,NA,NA,TRUE,F,31,433,31,2
7409,23,name,familiar,e1,0.3877551020408163,0,T,fam,F,31,nov,dog,TRUE,FALSE,TRUE,F,31,433,31,2
7409,23,vocalization,familiar,e1,0.725,367,D,fam,F,32,nov,horse,TRUE,TRUE,FALSE,F,31,433,31,2
7409,24,name,disambiguation,e1,0.5714285714285714,600,D,nov,F,31,fam,tapir,TRUE,TRUE,TRUE,F,31,433,31,2
7409,24,vocalization,disambiguation,e1,0.40963855421686746,1167,T,nov,F,32,fam,tapir,TRUE,TRUE,TRUE,F,31,433,31,2
7409,25,name,familiar,e1,0.1686746987951807,467,T,fam,F,31,nov,sheep,TRUE,TRUE,TRUE,F,31,433,31,2
7409,25,vocalization,familiar,e1,0.5,667,T,fam,F,32,fam,sheep,TRUE,TRUE,FALSE,F,31,433,31,2
7409,26,vocalization,familiar,e1,1,NA,T,fam,F,32,nov,cow,NA,NA,TRUE,F,31,433,31,2
7409,27,vocalization,disambiguation,e1,0.9014084507042254,233,D,nov,F,32,fam,pangolin,TRUE,TRUE,TRUE,F,31,433,31,2
7409,28,name,disambiguation,e1,1,0,T,nov,F,31,fam,pangolin,TRUE,FALSE,TRUE,F,31,433,31,2
7409,28,vocalization,familiar,e1,0.6865671641791045,1567,T,fam,F,32,fam,dog,FALSE,TRUE,FALSE,F,31,433,31,2
7409,29,name,familiar,e1,0.33766233766233766,0,T,fam,F,31,nov,dog,TRUE,FALSE,TRUE,F,31,433,31,2
7409,3,name,familiar,e1,0.7619047619047619,667,D,fam,F,31,fam,dog,TRUE,TRUE,TRUE,F,31,433,31,2
7409,3,vocalization,familiar,e1,0.43661971830985913,1e3,D,fam,F,32,nov,sheep,TRUE,TRUE,TRUE,F,31,433,31,2
7409,30,name,disambiguation,e1,0.6410256410256411,0,T,nov,F,31,fam,pangolin,TRUE,FALSE,TRUE,F,31,433,31,2
7409,31,name,familiar,e1,0.7692307692307693,0,T,fam,F,31,nov,horse,TRUE,FALSE,FALSE,F,31,433,31,2
7409,32,name,disambiguation,e1,0.7349397590361446,0,T,nov,F,31,fam,tapir,TRUE,FALSE,TRUE,F,31,433,31,2
7409,33,name,familiar,e1,0.45121951219512196,1267,T,fam,F,31,nov,sheep,TRUE,TRUE,TRUE,F,31,433,31,2
7409,34,name,disambiguation,e1,1,NA,T,nov,F,31,fam,pangolin,NA,NA,TRUE,F,31,433,31,2
7409,4,name,familiar,e1,0.5316455696202531,867,D,fam,F,31,fam,sheep,TRUE,TRUE,TRUE,F,31,433,31,2
7409,4,vocalization,disambiguation,e1,0.5822784810126582,767,T,nov,F,32,fam,tapir,TRUE,TRUE,TRUE,F,31,433,31,2
7409,5,name,familiar,e1,0.7619047619047619,667,D,fam,F,31,fam,horse,TRUE,TRUE,TRUE,F,31,433,31,2
7409,5,vocalization,familiar,e1,0.7142857142857143,0,T,fam,F,32,fam,dog,TRUE,FALSE,TRUE,F,31,433,31,2
7409,6,name,familiar,e1,0.5125,633,T,fam,F,31,fam,sheep,TRUE,TRUE,TRUE,F,31,433,31,2
7409,6,vocalization,familiar,e1,0.125,0,T,fam,F,32,nov,horse,FALSE,FALSE,FALSE,F,31,433,31,2
7409,7,name,familiar,e1,0.6170212765957447,600,D,fam,F,31,fam,horse,TRUE,TRUE,FALSE,F,31,433,31,2
7409,7,vocalization,disambiguation,e1,0.6521739130434783,0,T,nov,F,32,fam,pangolin,TRUE,FALSE,TRUE,F,31,433,31,2
7409,8,name,familiar,e1,0.28205128205128205,0,T,fam,F,31,fam,cow,TRUE,FALSE,TRUE,F,31,433,31,2
7409,9,name,familiar,e1,0.6764705882352942,367,D,fam,F,31,fam,dog,TRUE,TRUE,FALSE,F,31,433,31,2
7409,9,vocalization,familiar,e1,0.6170212765957447,967,T,fam,F,32,nov,dog,TRUE,TRUE,FALSE,F,31,433,31,2
7435,10,vocalization,disambiguation,e1,0.5064935064935064,367,D,nov,F,32,fam,tapir,TRUE,TRUE,TRUE,F,32,628,39,10
7435,11,onomatopoeic,familiar,e1,0.8941176470588236,300,D,fam,F,32,fam,dog,TRUE,TRUE,TRUE,F,32,628,39,10
7435,12,onomatopoeic,familiar,e1,1,NA,T,fam,F,32,fam,horse,NA,NA,TRUE,F,32,628,39,10
7435,12,vocalization,disambiguation,e1,0.4523809523809524,1300,T,nov,F,32,fam,pangolin,TRUE,TRUE,TRUE,F,32,628,39,10
7435,13,onomatopoeic,familiar,e1,0,NA,D,fam,F,32,fam,cow,NA,NA,TRUE,F,32,628,39,10
7435,13,vocalization,familiar,e1,0.39215686274509803,600,D,fam,F,32,fam,cow,TRUE,TRUE,FALSE,F,32,628,39,10
7435,14,onomatopoeic,familiar,e1,1,NA,T,fam,F,32,fam,sheep,NA,NA,TRUE,F,32,628,39,10
7435,14,vocalization,familiar,e1,0,0,T,fam,F,32,nov,sheep,TRUE,FALSE,TRUE,F,32,628,39,10
7435,15,onomatopoeic,familiar,e1,0.475,1100,D,fam,F,32,fam,dog,TRUE,TRUE,TRUE,F,32,628,39,10
7435,16,onomatopoeic,familiar,e1,1,NA,T,fam,F,32,fam,horse,NA,NA,TRUE,F,32,628,39,10
7435,16,vocalization,disambiguation,e1,0.30666666666666664,0,T,nov,F,32,fam,pangolin,TRUE,FALSE,TRUE,F,32,628,39,10
7435,17,onomatopoeic,familiar,e1,0.5833333333333334,1667,T,fam,F,32,fam,cow,TRUE,TRUE,TRUE,F,32,628,39,10
7435,17,vocalization,familiar,e1,1,NA,T,fam,F,32,nov,dog,NA,NA,FALSE,F,32,628,39,10
7435,18,onomatopoeic,familiar,e1,0.3269230769230769,1200,D,fam,F,32,fam,sheep,TRUE,TRUE,FALSE,F,32,628,39,10
7435,18,vocalization,familiar,e1,1,0,T,fam,F,32,fam,horse,TRUE,FALSE,TRUE,F,32,628,39,10
7435,2,name,familiar,e1,0,NA,D,fam,F,32,fam,cow,NA,NA,FALSE,F,32,628,39,10
7435,2,vocalization,familiar,e1,0.4473684210526316,200,T,fam,F,32,fam,horse,TRUE,TRUE,TRUE,F,32,628,39,10
7435,20,vocalization,familiar,e1,1,NA,T,fam,F,32,fam,sheep,NA,NA,TRUE,F,32,628,39,10
7435,21,name,familiar,e1,0,NA,D,fam,F,32,nov,cow,NA,NA,TRUE,F,32,628,39,10
7435,21,vocalization,familiar,e1,0.8444444444444444,0,T,fam,F,32,nov,cow,FALSE,FALSE,FALSE,F,32,628,39,10
7435,22,name,disambiguation,e1,1,NA,T,nov,F,32,fam,tapir,NA,NA,TRUE,F,32,628,39,10
7435,23,name,familiar,e1,0.6547619047619048,1867,T,fam,F,32,nov,dog,TRUE,TRUE,TRUE,F,32,628,39,10
7435,23,vocalization,familiar,e1,0.5256410256410257,933,T,fam,F,32,nov,horse,TRUE,TRUE,TRUE,F,32,628,39,10
7435,24,name,disambiguation,e1,1,NA,T,nov,F,32,fam,tapir,NA,NA,TRUE,F,32,628,39,10
7435,24,vocalization,disambiguation,e1,1,NA,T,nov,F,32,fam,tapir,NA,NA,TRUE,F,32,628,39,10
7435,25,name,familiar,e1,0.44047619047619047,1600,D,fam,F,32,nov,sheep,TRUE,TRUE,TRUE,F,32,628,39,10
7435,25,vocalization,familiar,e1,0,NA,D,fam,F,32,fam,sheep,NA,NA,TRUE,F,32,628,39,10
7435,26,name,disambiguation,e1,1,NA,T,nov,F,32,fam,tapir,NA,NA,TRUE,F,32,628,39,10
7435,26,vocalization,familiar,e1,1,NA,T,fam,F,32,nov,cow,NA,NA,TRUE,F,32,628,39,10
7435,27,vocalization,disambiguation,e1,1,NA,T,nov,F,32,fam,pangolin,NA,NA,FALSE,F,32,628,39,10
7435,28,name,disambiguation,e1,0.40476190476190477,1167,T,nov,F,32,fam,pangolin,TRUE,TRUE,TRUE,F,32,628,39,10
7435,29,name,familiar,e1,0.6071428571428571,1733,T,fam,F,32,nov,dog,TRUE,TRUE,TRUE,F,32,628,39,10
7435,3,name,familiar,e1,0,NA,D,fam,F,32,fam,dog,NA,NA,FALSE,F,32,628,39,10
7435,3,vocalization,familiar,e1,0.6071428571428571,1133,D,fam,F,32,nov,sheep,TRUE,TRUE,TRUE,F,32,628,39,10
7435,30,name,disambiguation,e1,0.25609756097560976,2100,D,nov,F,32,fam,pangolin,TRUE,TRUE,TRUE,F,32,628,39,10
7435,31,name,familiar,e1,0.8372093023255814,467,D,fam,F,32,nov,horse,TRUE,TRUE,TRUE,F,32,628,39,10
7435,32,name,disambiguation,e1,0,NA,D,nov,F,32,fam,tapir,NA,NA,TRUE,F,32,628,39,10
7435,33,name,familiar,e1,0.2222222222222222,500,D,fam,F,32,nov,sheep,TRUE,TRUE,FALSE,F,32,628,39,10
7435,34,name,disambiguation,e1,0.7294117647058823,767,D,nov,F,32,fam,pangolin,TRUE,TRUE,TRUE,F,32,628,39,10
7435,4,name,familiar,e1,0.5277777777777778,1167,D,fam,F,32,fam,sheep,TRUE,TRUE,TRUE,F,32,628,39,10
7435,4,vocalization,disambiguation,e1,0.4342105263157895,33,T,nov,F,32,fam,tapir,TRUE,TRUE,TRUE,F,32,628,39,10
7435,5,vocalization,familiar,e1,0.7142857142857143,800,D,fam,F,32,fam,dog,TRUE,TRUE,TRUE,F,32,628,39,10
7435,6,name,familiar,e1,0.5609756097560976,867,T,fam,F,32,fam,sheep,TRUE,TRUE,TRUE,F,32,628,39,10
7435,6,vocalization,familiar,e1,0.6904761904761905,867,D,fam,F,32,nov,horse,TRUE,TRUE,TRUE,F,32,628,39,10
7435,7,name,familiar,e1,0.5357142857142857,1533,T,fam,F,32,fam,horse,TRUE,TRUE,TRUE,F,32,628,39,10
7435,7,vocalization,disambiguation,e1,0.7142857142857143,800,D,nov,F,32,fam,pangolin,TRUE,TRUE,TRUE,F,32,628,39,10
7435,8,name,familiar,e1,0.5952380952380952,1167,D,fam,F,32,fam,cow,TRUE,TRUE,TRUE,F,32,628,39,10
7435,9,vocalization,familiar,e1,0.8271604938271605,300,T,fam,F,32,nov,dog,TRUE,TRUE,TRUE,F,32,628,39,10
7462,10,onomatopoeic,familiar,e1,0.46987951807228917,1500,D,fam,F,32,fam,sheep,TRUE,TRUE,TRUE,F,32,329,33,12
7462,10,vocalization,disambiguation,e1,0.6046511627906976,1167,D,nov,F,32,fam,tapir,TRUE,TRUE,TRUE,F,32,329,33,12
7462,11,name,disambiguation,e1,0.7195121951219512,1400,T,nov,F,32,fam,tapir,TRUE,TRUE,TRUE,F,32,329,33,12
7462,11,vocalization,familiar,e1,1,NA,T,fam,F,32,fam,cow,NA,NA,TRUE,F,32,329,33,12
7462,12,name,familiar,e1,0.07058823529411765,200,T,fam,F,32,nov,sheep,TRUE,TRUE,TRUE,F,32,329,33,12
7462,12,vocalization,disambiguation,e1,0.7558139534883721,700,D,nov,F,32,fam,pangolin,TRUE,TRUE,TRUE,F,32,329,33,12
7462,13,name,disambiguation,e1,0.4,700,T,nov,F,32,fam,pangolin,TRUE,TRUE,TRUE,F,32,329,33,12
7462,13,vocalization,familiar,e1,0.6904761904761905,867,D,fam,F,32,fam,cow,TRUE,TRUE,TRUE,F,32,329,33,12
7462,14,name,familiar,e1,0.7380952380952381,2133,T,fam,F,32,nov,dog,TRUE,TRUE,TRUE,F,32,329,33,12
7462,14,vocalization,familiar,e1,0.39759036144578314,1700,D,fam,F,32,nov,sheep,TRUE,TRUE,TRUE,F,32,329,33,12
7462,15,name,disambiguation,e1,0.5930232558139535,1200,D,nov,F,32,fam,tapir,TRUE,TRUE,TRUE,F,32,329,33,12
7462,16,vocalization,disambiguation,e1,0.6071428571428571,733,D,nov,F,32,fam,pangolin,TRUE,TRUE,TRUE,F,32,329,33,12
7462,17,onomatopoeic,familiar,e1,0.7272727272727273,0,T,fam,F,32,fam,sheep,TRUE,FALSE,TRUE,F,32,329,33,12
7462,17,vocalization,familiar,e1,0.8690476190476191,NA,T,fam,F,32,nov,dog,NA,NA,TRUE,F,32,329,33,12
7462,18,onomatopoeic,familiar,e1,0.45121951219512196,400,T,fam,F,32,fam,dog,TRUE,TRUE,TRUE,F,32,329,33,12
7462,18,vocalization,familiar,e1,0.7654320987654321,1400,T,fam,F,32,fam,horse,TRUE,TRUE,TRUE,F,32,329,33,12
7462,19,onomatopoeic,familiar,e1,0.6585365853658537,300,T,fam,F,32,fam,cow,TRUE,TRUE,TRUE,F,32,329,33,12
7462,19,vocalization,disambiguation,e1,0.5,1467,T,nov,F,32,fam,tapir,TRUE,TRUE,TRUE,F,32,329,33,12
7462,2,name,familiar,e1,0.6829268292682927,367,D,fam,F,32,fam,horse,TRUE,TRUE,TRUE,F,32,329,33,12
7462,2,vocalization,familiar,e1,0.6746987951807228,600,T,fam,F,32,fam,horse,TRUE,TRUE,TRUE,F,32,329,33,12
7462,20,onomatopoeic,familiar,e1,0.7654320987654321,900,T,fam,F,32,fam,horse,TRUE,TRUE,TRUE,F,32,329,33,12
7462,21,vocalization,familiar,e1,1,0,T,fam,F,32,nov,cow,FALSE,FALSE,FALSE,F,32,329,33,12
7462,22,name,disambiguation,e1,0.8051948051948052,500,D,nov,F,32,fam,pangolin,TRUE,TRUE,TRUE,F,32,329,33,12
7462,23,name,familiar,e1,0.71875,0,T,fam,F,32,nov,cow,FALSE,FALSE,FALSE,F,32,329,33,12
7462,23,vocalization,familiar,e1,0.6857142857142857,367,D,fam,F,32,nov,horse,TRUE,TRUE,FALSE,F,32,329,33,12
7462,24,name,disambiguation,e1,0.6904761904761905,867,D,nov,F,32,fam,tapir,TRUE,TRUE,TRUE,F,32,329,33,12
7462,25,name,familiar,e1,0.813953488372093,533,D,fam,F,32,nov,horse,TRUE,TRUE,TRUE,F,32,329,33,12
7462,26,name,disambiguation,e1,0.6190476190476191,1100,D,nov,F,32,fam,pangolin,TRUE,TRUE,TRUE,F,32,329,33,12
7462,3,name,familiar,e1,0.48717948717948717,633,D,fam,F,32,fam,sheep,TRUE,TRUE,TRUE,F,32,329,33,12
7462,3,vocalization,familiar,e1,1,NA,T,fam,F,32,nov,sheep,NA,NA,TRUE,F,32,329,33,12
7462,4,name,familiar,e1,0.7575757575757576,533,D,fam,F,32,fam,cow,TRUE,TRUE,TRUE,F,32,329,33,12
7462,4,vocalization,disambiguation,e1,0.6823529411764706,900,D,nov,F,32,fam,tapir,TRUE,TRUE,TRUE,F,32,329,33,12
7462,5,name,familiar,e1,1,NA,T,fam,F,32,fam,dog,NA,NA,TRUE,F,32,329,33,12
7462,5,vocalization,familiar,e1,0.7674418604651163,667,D,fam,F,32,fam,dog,TRUE,TRUE,TRUE,F,32,329,33,12
7462,6,vocalization,familiar,e1,1,NA,T,fam,F,32,nov,horse,NA,NA,TRUE,F,32,329,33,12
7462,7,onomatopoeic,familiar,e1,0.47368421052631576,233,D,fam,F,32,fam,horse,TRUE,TRUE,TRUE,F,32,329,33,12
7462,7,vocalization,disambiguation,e1,0.9882352941176471,33,D,nov,F,32,fam,pangolin,TRUE,TRUE,TRUE,F,32,329,33,12
7462,8,onomatopoeic,familiar,e1,0.8571428571428571,NA,T,fam,F,32,fam,cow,NA,NA,TRUE,F,32,329,33,12
7462,9,onomatopoeic,familiar,e1,1,NA,T,fam,F,32,fam,dog,NA,NA,TRUE,F,32,329,33,12
7462,9,vocalization,familiar,e1,1,NA,T,fam,F,32,nov,dog,NA,NA,TRUE,F,32,329,33,12
7471,10,onomatopoeic,familiar,e1,1,NA,T,fam,F,32,fam,sheep,NA,NA,FALSE,F,32,611,43,12
7471,11,name,disambiguation,e1,0.8533333333333334,0,T,nov,F,32,fam,tapir,TRUE,FALSE,TRUE,F,32,611,43,12
7471,11,vocalization,familiar,e1,1,NA,T,fam,F,32,fam,cow,NA,NA,TRUE,F,32,611,43,12
7471,12,name,familiar,e1,0.582089552238806,0,T,fam,F,32,nov,sheep,FALSE,FALSE,FALSE,F,32,611,43,12
7471,12,vocalization,disambiguation,e1,0.5909090909090909,867,T,nov,F,32,fam,pangolin,TRUE,TRUE,FALSE,F,32,611,43,12
7471,13,name,disambiguation,e1,1,NA,T,nov,F,32,fam,pangolin,NA,NA,FALSE,F,32,611,43,12
7471,13,vocalization,familiar,e1,0.011904761904761904,NA,D,fam,F,32,fam,cow,NA,NA,TRUE,F,32,611,43,12
7471,14,name,familiar,e1,0.7012987012987013,233,D,fam,F,32,nov,dog,TRUE,TRUE,TRUE,F,32,611,43,12
7471,14,vocalization,familiar,e1,0.8245614035087719,333,D,fam,F,32,nov,sheep,TRUE,TRUE,FALSE,F,32,611,43,12
7471,15,name,disambiguation,e1,0.927710843373494,933,T,nov,F,32,fam,tapir,TRUE,TRUE,TRUE,F,32,611,43,12
7471,16,vocalization,disambiguation,e1,0.5764705882352941,1233,D,nov,F,32,fam,pangolin,TRUE,TRUE,TRUE,F,32,611,43,12
7471,17,onomatopoeic,familiar,e1,1,0,T,fam,F,32,fam,sheep,FALSE,FALSE,FALSE,F,32,611,43,12
7471,17,vocalization,familiar,e1,0.8536585365853658,767,T,fam,F,32,nov,dog,TRUE,TRUE,TRUE,F,32,611,43,12
7471,18,onomatopoeic,familiar,e1,0.9104477611940298,167,D,fam,F,32,fam,dog,TRUE,TRUE,TRUE,F,32,611,43,12
7471,18,vocalization,familiar,e1,1,NA,T,fam,F,32,fam,horse,NA,NA,TRUE,F,32,611,43,12
7471,19,onomatopoeic,familiar,e1,0.8352941176470589,467,D,fam,F,32,fam,cow,TRUE,TRUE,TRUE,F,32,611,43,12
7471,2,name,familiar,e1,0.4567901234567901,600,D,fam,F,32,fam,horse,TRUE,TRUE,TRUE,F,32,611,43,12
7471,2,vocalization,familiar,e1,0.8433734939759037,433,D,fam,F,32,fam,horse,TRUE,TRUE,TRUE,F,32,611,43,12
7471,20,onomatopoeic,familiar,e1,0.8588235294117647,400,D,fam,F,32,fam,horse,TRUE,TRUE,TRUE,F,32,611,43,12
7471,20,vocalization,familiar,e1,0.8625,0,T,fam,F,32,fam,sheep,TRUE,FALSE,TRUE,F,32,611,43,12
7471,21,vocalization,familiar,e1,1,NA,T,fam,F,32,nov,cow,NA,NA,TRUE,F,32,611,43,12
7471,22,name,disambiguation,e1,0.8235294117647058,0,T,nov,F,32,fam,pangolin,TRUE,FALSE,TRUE,F,32,611,43,12
7471,23,name,familiar,e1,0.6724137931034483,633,D,fam,F,32,nov,cow,TRUE,TRUE,FALSE,F,32,611,43,12
7471,23,vocalization,familiar,e1,1,NA,T,fam,F,32,nov,horse,NA,NA,TRUE,F,32,611,43,12
7471,24,name,disambiguation,e1,0.5087719298245614,533,D,nov,F,32,fam,tapir,TRUE,TRUE,TRUE,F,32,611,43,12
7471,24,vocalization,disambiguation,e1,0.7049180327868853,0,T,nov,F,32,fam,tapir,TRUE,FALSE,FALSE,F,32,611,43,12
7471,25,name,familiar,e1,0.5616438356164384,333,T,fam,F,32,nov,horse,TRUE,TRUE,TRUE,F,32,611,43,12
7471,25,vocalization,familiar,e1,0.647887323943662,867,T,fam,F,32,fam,sheep,TRUE,TRUE,TRUE,F,32,611,43,12
7471,26,name,disambiguation,e1,0.9032258064516129,0,T,nov,F,32,fam,pangolin,TRUE,FALSE,TRUE,F,32,611,43,12
7471,26,vocalization,familiar,e1,0.1,67,T,fam,F,32,nov,cow,TRUE,TRUE,TRUE,F,32,611,43,12
7471,27,vocalization,disambiguation,e1,0.2236842105263158,1167,D,nov,F,32,fam,pangolin,TRUE,TRUE,TRUE,F,32,611,43,12
7471,28,vocalization,familiar,e1,0.8271604938271605,467,D,fam,F,32,fam,dog,TRUE,TRUE,TRUE,F,32,611,43,12
7471,3,name,familiar,e1,0.65,867,T,fam,F,32,fam,sheep,TRUE,TRUE,TRUE,F,32,611,43,12
7471,3,vocalization,familiar,e1,0.7619047619047619,667,D,fam,F,32,nov,sheep,TRUE,TRUE,TRUE,F,32,611,43,12
7471,4,name,familiar,e1,0.8674698795180723,367,D,fam,F,32,fam,cow,TRUE,TRUE,TRUE,F,32,611,43,12
7471,4,vocalization,disambiguation,e1,0.24358974358974358,900,D,nov,F,32,fam,tapir,TRUE,TRUE,TRUE,F,32,611,43,12
7471,5,name,familiar,e1,1,NA,T,fam,F,32,fam,dog,NA,NA,TRUE,F,32,611,43,12
7471,5,vocalization,familiar,e1,0.6428571428571429,1e3,D,fam,F,32,fam,dog,TRUE,TRUE,TRUE,F,32,611,43,12
7471,6,vocalization,familiar,e1,1,NA,T,fam,F,32,nov,horse,NA,NA,FALSE,F,32,611,43,12
7471,7,onomatopoeic,familiar,e1,0.8666666666666667,33,D,fam,F,32,fam,horse,TRUE,TRUE,TRUE,F,32,611,43,12
7471,7,vocalization,disambiguation,e1,0.6190476190476191,1100,D,nov,F,32,fam,pangolin,TRUE,TRUE,TRUE,F,32,611,43,12
7471,8,onomatopoeic,familiar,e1,0.6862745098039216,367,T,fam,F,32,fam,cow,TRUE,TRUE,FALSE,F,32,611,43,12
7471,9,onomatopoeic,familiar,e1,1,NA,T,fam,F,32,fam,dog,NA,NA,TRUE,F,32,611,43,12
7471,9,vocalization,familiar,e1,0.7678571428571429,433,D,fam,F,32,nov,dog,TRUE,TRUE,FALSE,F,32,611,43,12
7505,10,onomatopoeic,familiar,e1,0.8705882352941177,367,D,fam,F,32,fam,sheep,TRUE,TRUE,TRUE,F,32,667,43,12
7505,10,vocalization,disambiguation,e1,0.43037974683544306,600,T,nov,F,33,fam,pangolin,TRUE,TRUE,TRUE,F,32,667,43,12
7505,11,name,disambiguation,e1,0.6829268292682927,1900,T,nov,F,32,fam,pangolin,TRUE,TRUE,TRUE,F,32,667,43,12
7505,11,vocalization,familiar,e1,0.8604651162790697,400,D,fam,F,33,fam,cow,TRUE,TRUE,TRUE,F,32,667,43,12
7505,12,name,familiar,e1,0.6470588235294118,1e3,D,fam,F,32,nov,sheep,TRUE,TRUE,TRUE,F,32,667,43,12
7505,12,vocalization,disambiguation,e1,1,NA,T,nov,F,33,fam,tapir,NA,NA,TRUE,F,32,667,43,12
7505,13,name,disambiguation,e1,0.6973684210526315,400,T,nov,F,32,fam,tapir,TRUE,TRUE,TRUE,F,32,667,43,12
7505,13,vocalization,familiar,e1,0,NA,D,fam,F,33,fam,cow,NA,NA,FALSE,F,32,667,43,12
7505,14,name,familiar,e1,0.5783132530120482,1200,D,fam,F,32,nov,dog,TRUE,TRUE,TRUE,F,32,667,43,12
7505,15,name,disambiguation,e1,0.6097560975609756,400,D,nov,F,32,fam,pangolin,TRUE,TRUE,TRUE,F,32,667,43,12
7505,16,vocalization,disambiguation,e1,0.5119047619047619,1400,D,nov,F,33,fam,tapir,TRUE,TRUE,TRUE,F,32,667,43,12
7505,17,onomatopoeic,familiar,e1,0,NA,D,fam,F,32,fam,sheep,NA,NA,FALSE,F,32,667,43,12
7505,18,vocalization,familiar,e1,0,0,T,fam,F,33,fam,horse,TRUE,FALSE,FALSE,F,32,667,43,12
7505,19,onomatopoeic,familiar,e1,1,NA,T,fam,F,32,fam,cow,NA,NA,TRUE,F,32,667,43,12
7505,2,name,familiar,e1,0.4567901234567901,700,D,fam,F,32,fam,horse,TRUE,TRUE,TRUE,F,32,667,43,12
7505,2,vocalization,familiar,e1,1,NA,T,fam,F,33,fam,horse,NA,NA,TRUE,F,32,667,43,12
7505,20,onomatopoeic,familiar,e1,0.14285714285714285,300,T,fam,F,32,fam,horse,TRUE,TRUE,TRUE,F,32,667,43,12
7505,20,vocalization,familiar,e1,0.725,133,D,fam,F,33,fam,sheep,TRUE,TRUE,TRUE,F,32,667,43,12
7505,22,name,disambiguation,e1,1,NA,T,nov,F,32,fam,tapir,NA,NA,TRUE,F,32,667,43,12
7505,23,name,familiar,e1,0.6744186046511628,933,D,fam,F,32,nov,cow,TRUE,TRUE,TRUE,F,32,667,43,12
7505,23,vocalization,familiar,e1,0.7738095238095238,633,D,fam,F,33,nov,horse,TRUE,TRUE,TRUE,F,32,667,43,12
7505,24,name,disambiguation,e1,0.7976190476190477,567,D,nov,F,32,fam,pangolin,TRUE,TRUE,TRUE,F,32,667,43,12
7505,25,name,familiar,e1,1,NA,T,fam,F,32,nov,horse,NA,NA,TRUE,F,32,667,43,12
7505,26,name,disambiguation,e1,0.6385542168674698,1033,D,nov,F,32,fam,tapir,TRUE,TRUE,TRUE,F,32,667,43,12
7505,27,vocalization,disambiguation,e1,1,NA,T,nov,F,33,fam,tapir,NA,NA,TRUE,F,32,667,43,12
7505,3,name,familiar,e1,1,NA,T,fam,F,32,fam,sheep,NA,NA,TRUE,F,32,667,43,12
7505,3,vocalization,familiar,e1,0,NA,D,fam,F,33,nov,sheep,NA,NA,TRUE,F,32,667,43,12
7505,4,name,familiar,e1,0.7951807228915663,567,D,fam,F,32,fam,cow,TRUE,TRUE,TRUE,F,32,667,43,12
7505,4,vocalization,disambiguation,e1,0.8,433,D,nov,F,33,fam,pangolin,TRUE,TRUE,TRUE,F,32,667,43,12
7505,5,name,familiar,e1,0.8214285714285714,500,D,fam,F,32,fam,dog,TRUE,TRUE,TRUE,F,32,667,43,12
7505,5,vocalization,familiar,e1,0.5263157894736842,1367,T,fam,F,33,fam,dog,TRUE,TRUE,TRUE,F,32,667,43,12
7505,6,vocalization,familiar,e1,0.7411764705882353,2167,T,fam,F,33,nov,horse,TRUE,TRUE,TRUE,F,32,667,43,12
7505,7,onomatopoeic,familiar,e1,1,NA,T,fam,F,32,fam,horse,NA,NA,TRUE,F,32,667,43,12
7505,8,onomatopoeic,familiar,e1,0.8,133,T,fam,F,32,fam,cow,TRUE,TRUE,TRUE,F,32,667,43,12
7505,9,onomatopoeic,familiar,e1,0.3764705882352941,1800,D,fam,F,32,fam,dog,TRUE,TRUE,TRUE,F,32,667,43,12
7505,9,vocalization,familiar,e1,0.5434782608695652,700,D,fam,F,33,nov,dog,TRUE,TRUE,FALSE,F,32,667,43,12
7508,10,vocalization,disambiguation,e1,0.7901234567901234,600,T,nov,M,31,fam,tapir,TRUE,TRUE,TRUE,M,31,539,38,8
7508,11,onomatopoeic,familiar,e1,0.2878787878787879,667,D,fam,M,31,fam,dog,TRUE,TRUE,FALSE,M,31,539,38,8
7508,11,vocalization,familiar,e1,0.8625,1700,T,fam,M,31,fam,cow,TRUE,TRUE,TRUE,M,31,539,38,8
7508,13,onomatopoeic,familiar,e1,0.4588235294117647,1333,T,fam,M,31,fam,cow,TRUE,TRUE,TRUE,M,31,539,38,8
7508,13,vocalization,familiar,e1,0.5925925925925926,1133,D,fam,M,31,fam,cow,TRUE,TRUE,TRUE,M,31,539,38,8
7508,14,onomatopoeic,familiar,e1,0.9135802469135802,267,T,fam,M,31,fam,sheep,TRUE,TRUE,TRUE,M,31,539,38,8
7508,14,vocalization,familiar,e1,1,NA,T,fam,M,31,nov,sheep,NA,NA,FALSE,M,31,539,38,8
7508,15,onomatopoeic,familiar,e1,0.7176470588235294,800,D,fam,M,31,fam,dog,TRUE,TRUE,TRUE,M,31,539,38,8
7508,16,onomatopoeic,familiar,e1,1,NA,T,fam,M,31,fam,horse,NA,NA,TRUE,M,31,539,38,8
7508,16,vocalization,disambiguation,e1,0.7931034482758621,1367,T,nov,M,31,fam,pangolin,TRUE,TRUE,FALSE,M,31,539,38,8
7508,17,onomatopoeic,familiar,e1,0.48148148148148145,67,T,fam,M,31,fam,cow,TRUE,TRUE,TRUE,M,31,539,38,8
7508,17,vocalization,familiar,e1,0.8452380952380952,NA,T,fam,M,31,nov,dog,NA,NA,TRUE,M,31,539,38,8
7508,18,onomatopoeic,familiar,e1,1,NA,T,fam,M,31,fam,sheep,NA,NA,TRUE,M,31,539,38,8
7508,18,vocalization,familiar,e1,1,NA,T,fam,M,31,fam,horse,NA,NA,TRUE,M,31,539,38,8
7508,19,vocalization,disambiguation,e1,0.4235294117647059,1667,D,nov,M,31,fam,tapir,TRUE,TRUE,TRUE,M,31,539,38,8
7508,2,name,familiar,e1,1,NA,T,fam,M,31,fam,cow,NA,NA,TRUE,M,31,539,38,8
7508,2,vocalization,familiar,e1,0.5641025641025641,433,D,fam,M,31,fam,horse,TRUE,TRUE,TRUE,M,31,539,38,8
7508,20,name,disambiguation,e1,0.7654320987654321,1567,T,nov,M,31,fam,pangolin,TRUE,TRUE,TRUE,M,31,539,38,8
7508,20,vocalization,familiar,e1,0.4444444444444444,0,T,fam,M,31,fam,sheep,FALSE,FALSE,FALSE,M,31,539,38,8
7508,21,name,familiar,e1,0.8214285714285714,500,D,fam,M,31,nov,cow,TRUE,TRUE,TRUE,M,31,539,38,8
7508,21,vocalization,familiar,e1,1,0,T,fam,M,31,nov,cow,TRUE,FALSE,TRUE,M,31,539,38,8
7508,23,name,familiar,e1,0.7580645161290323,500,D,fam,M,31,nov,dog,TRUE,TRUE,TRUE,M,31,539,38,8
7508,23,vocalization,familiar,e1,1,NA,T,fam,M,31,nov,horse,NA,NA,FALSE,M,31,539,38,8
7508,24,name,disambiguation,e1,0,NA,D,nov,M,31,fam,tapir,NA,NA,FALSE,M,31,539,38,8
7508,24,vocalization,disambiguation,e1,0.25609756097560976,633,D,nov,M,31,fam,tapir,TRUE,TRUE,TRUE,M,31,539,38,8
7508,25,vocalization,familiar,e1,0.4,1333,D,fam,M,31,fam,sheep,TRUE,TRUE,TRUE,M,31,539,38,8
7508,26,vocalization,familiar,e1,0.5,0,T,fam,M,31,nov,cow,FALSE,FALSE,FALSE,M,31,539,38,8
7508,27,vocalization,disambiguation,e1,0.847457627118644,300,D,nov,M,31,fam,pangolin,TRUE,TRUE,TRUE,M,31,539,38,8
7508,28,name,disambiguation,e1,0.32098765432098764,667,D,nov,M,31,fam,pangolin,TRUE,TRUE,TRUE,M,31,539,38,8
7508,28,vocalization,familiar,e1,0.2972972972972973,600,T,fam,M,31,fam,dog,TRUE,TRUE,TRUE,M,31,539,38,8
7508,29,name,familiar,e1,0,NA,D,fam,M,31,nov,dog,NA,NA,TRUE,M,31,539,38,8
7508,3,name,familiar,e1,0.6071428571428571,1733,T,fam,M,31,fam,dog,TRUE,TRUE,TRUE,M,31,539,38,8
7508,3,vocalization,familiar,e1,0.7037037037037037,300,T,fam,M,31,nov,sheep,TRUE,TRUE,TRUE,M,31,539,38,8
7508,30,name,disambiguation,e1,1,NA,T,nov,M,31,fam,pangolin,NA,NA,TRUE,M,31,539,38,8
7508,31,name,familiar,e1,0.11764705882352941,NA,D,fam,M,31,nov,horse,NA,NA,TRUE,M,31,539,38,8
7508,32,name,disambiguation,e1,0.8214285714285714,500,D,nov,M,31,fam,tapir,TRUE,TRUE,TRUE,M,31,539,38,8
7508,33,name,familiar,e1,0.5,267,D,fam,M,31,nov,sheep,TRUE,TRUE,FALSE,M,31,539,38,8
7508,4,vocalization,disambiguation,e1,0.6705882352941176,933,D,nov,M,31,fam,tapir,TRUE,TRUE,TRUE,M,31,539,38,8
7508,5,name,familiar,e1,1,NA,T,fam,M,31,fam,horse,NA,NA,TRUE,M,31,539,38,8
7508,5,vocalization,familiar,e1,1,NA,T,fam,M,31,fam,dog,NA,NA,TRUE,M,31,539,38,8
7508,6,name,familiar,e1,0.6607142857142857,633,D,fam,M,31,fam,sheep,TRUE,TRUE,TRUE,M,31,539,38,8
7508,7,name,familiar,e1,0.9318181818181818,100,D,fam,M,31,fam,horse,TRUE,TRUE,FALSE,M,31,539,38,8
7508,7,vocalization,disambiguation,e1,0.9411764705882353,NA,T,nov,M,31,fam,pangolin,NA,NA,TRUE,M,31,539,38,8
7508,9,name,familiar,e1,0,NA,D,fam,M,31,fam,dog,NA,NA,TRUE,M,31,539,38,8
7508,9,vocalization,familiar,e1,0.8313253012048193,767,T,fam,M,31,nov,dog,TRUE,TRUE,TRUE,M,31,539,38,8
7549,10,onomatopoeic,familiar,e1,1,NA,T,fam,M,32,fam,sheep,NA,NA,TRUE,M,31,327,32,11
7549,11,vocalization,familiar,e1,1,NA,T,fam,M,32,fam,cow,NA,NA,TRUE,M,31,327,32,11
7549,12,vocalization,disambiguation,e1,0.75,700,D,nov,M,32,fam,pangolin,TRUE,TRUE,TRUE,M,31,327,32,11
7549,13,name,disambiguation,e1,1,NA,T,nov,M,32,fam,pangolin,NA,NA,TRUE,M,31,327,32,11
7549,13,vocalization,familiar,e1,0,NA,D,fam,M,32,fam,cow,NA,NA,TRUE,M,31,327,32,11
7549,14,vocalization,familiar,e1,0.9759036144578314,67,D,fam,M,32,nov,sheep,TRUE,TRUE,TRUE,M,31,327,32,11
7549,15,name,disambiguation,e1,0.4470588235294118,1300,T,nov,M,32,fam,tapir,TRUE,TRUE,TRUE,M,31,327,32,11
7549,16,vocalization,disambiguation,e1,0.8,333,D,nov,M,32,fam,pangolin,FALSE,TRUE,FALSE,M,31,327,32,11
7549,17,vocalization,familiar,e1,0,NA,D,fam,M,32,nov,dog,NA,NA,TRUE,M,31,327,32,11
7549,18,vocalization,familiar,e1,0.9295774647887324,167,D,fam,M,32,fam,horse,TRUE,TRUE,TRUE,M,31,327,32,11
7549,19,vocalization,disambiguation,e1,1,0,T,nov,M,32,fam,tapir,TRUE,FALSE,TRUE,M,31,327,32,11
7549,2,name,familiar,e1,1,NA,T,fam,M,32,fam,horse,NA,NA,TRUE,M,31,327,32,11
7549,2,vocalization,familiar,e1,0.46987951807228917,1500,D,fam,M,32,fam,horse,TRUE,TRUE,TRUE,M,31,327,32,11
7549,20,onomatopoeic,familiar,e1,1,NA,T,fam,M,32,fam,horse,NA,NA,TRUE,M,31,327,32,11
7549,20,vocalization,familiar,e1,0,NA,D,fam,M,32,fam,sheep,NA,NA,TRUE,M,31,327,32,11
7549,21,vocalization,familiar,e1,0.38095238095238093,1767,D,fam,M,32,nov,cow,TRUE,TRUE,TRUE,M,31,327,32,11
7549,22,name,disambiguation,e1,0.7142857142857143,0,T,nov,M,32,fam,pangolin,FALSE,FALSE,FALSE,M,31,327,32,11
7549,23,name,familiar,e1,1,NA,T,fam,M,32,nov,cow,NA,NA,TRUE,M,31,327,32,11
7549,23,vocalization,familiar,e1,1,NA,T,fam,M,32,nov,horse,NA,NA,FALSE,M,31,327,32,11
7549,24,name,disambiguation,e1,0,NA,D,nov,M,32,fam,tapir,NA,NA,TRUE,M,31,327,32,11
7549,24,vocalization,disambiguation,e1,0.54216867469879515,1533,T,nov,M,32,fam,tapir,TRUE,TRUE,TRUE,M,31,327,32,11
7549,25,name,familiar,e1,0.41509433962264153,733,T,fam,M,32,nov,horse,TRUE,TRUE,FALSE,M,31,327,32,11
7549,25,vocalization,familiar,e1,1,NA,T,fam,M,32,fam,sheep,NA,NA,TRUE,M,31,327,32,11
7549,26,vocalization,familiar,e1,1,NA,T,fam,M,32,nov,cow,NA,NA,FALSE,M,31,327,32,11
7549,28,vocalization,familiar,e1,1,0,T,fam,M,32,fam,dog,TRUE,FALSE,TRUE,M,31,327,32,11
7549,3,name,familiar,e1,0.8765432098765432,333,D,fam,M,32,fam,sheep,TRUE,TRUE,TRUE,M,31,327,32,11
7549,3,vocalization,familiar,e1,0.39285714285714285,1133,T,fam,M,32,nov,sheep,TRUE,TRUE,TRUE,M,31,327,32,11
7549,4,name,familiar,e1,0,0,T,fam,M,32,fam,cow,TRUE,FALSE,TRUE,M,31,327,32,11
7549,4,vocalization,disambiguation,e1,0.5833333333333334,1667,T,nov,M,32,fam,tapir,TRUE,TRUE,TRUE,M,31,327,32,11
7549,5,name,familiar,e1,0.5185185185185185,1433,T,fam,M,32,fam,dog,TRUE,TRUE,TRUE,M,31,327,32,11
7549,5,vocalization,familiar,e1,0.375,0,T,fam,M,32,fam,dog,TRUE,FALSE,TRUE,M,31,327,32,11
7549,6,vocalization,familiar,e1,0.6746987951807228,1900,T,fam,M,32,nov,horse,TRUE,TRUE,TRUE,M,31,327,32,11
7549,7,onomatopoeic,familiar,e1,0.7023809523809523,833,D,fam,M,32,fam,horse,TRUE,TRUE,TRUE,M,31,327,32,11
7549,7,vocalization,disambiguation,e1,0.07407407407407407,NA,D,nov,M,32,fam,pangolin,NA,NA,TRUE,M,31,327,32,11
7549,8,onomatopoeic,familiar,e1,1,NA,T,fam,M,32,fam,cow,NA,NA,TRUE,M,31,327,32,11
7549,9,vocalization,familiar,e1,0.2857142857142857,333,T,fam,M,32,nov,dog,TRUE,TRUE,FALSE,M,31,327,32,11
7573,10,onomatopoeic,familiar,e1,0.7558139534883721,700,D,fam,F,32,fam,sheep,TRUE,TRUE,TRUE,F,32,0,0,0
7573,10,vocalization,disambiguation,e1,0.5180722891566265,600,T,nov,F,32,fam,pangolin,TRUE,TRUE,TRUE,F,32,0,0,0
7573,11,name,disambiguation,e1,0.3373493975903614,467,D,nov,F,32,fam,tapir,TRUE,TRUE,TRUE,F,32,0,0,0
7573,11,vocalization,familiar,e1,0.7142857142857143,0,T,fam,F,32,fam,cow,TRUE,FALSE,TRUE,F,32,0,0,0
7573,12,name,familiar,e1,1,NA,T,fam,F,32,nov,sheep,NA,NA,TRUE,F,32,0,0,0
7573,12,vocalization,disambiguation,e1,0.7108433734939759,600,T,nov,F,32,fam,tapir,TRUE,TRUE,TRUE,F,32,0,0,0
7573,13,name,disambiguation,e1,0.4927536231884058,1567,T,nov,F,32,fam,pangolin,TRUE,TRUE,TRUE,F,32,0,0,0
7573,13,vocalization,familiar,e1,0.686046511627907,900,D,fam,F,32,fam,cow,TRUE,TRUE,TRUE,F,32,0,0,0
7573,14,name,familiar,e1,0.525,67,T,fam,F,32,nov,dog,TRUE,TRUE,TRUE,F,32,0,0,0
7573,14,vocalization,familiar,e1,0.9529411764705882,NA,T,fam,F,32,nov,sheep,NA,NA,TRUE,F,32,0,0,0
7573,15,name,disambiguation,e1,1,NA,T,nov,F,32,fam,tapir,NA,NA,FALSE,F,32,0,0,0
7573,16,vocalization,disambiguation,e1,0.35365853658536583,600,T,nov,F,32,fam,tapir,TRUE,TRUE,TRUE,F,32,0,0,0
7573,17,onomatopoeic,familiar,e1,0.7073170731707317,1400,T,fam,F,32,fam,sheep,TRUE,TRUE,TRUE,F,32,0,0,0
7573,17,vocalization,familiar,e1,0.7352941176470589,600,D,fam,F,32,nov,dog,TRUE,TRUE,TRUE,F,32,0,0,0
7573,18,onomatopoeic,familiar,e1,0.8705882352941177,367,D,fam,F,32,fam,dog,TRUE,TRUE,TRUE,F,32,0,0,0
7573,18,vocalization,familiar,e1,0.1728395061728395,1533,D,fam,F,32,fam,horse,TRUE,TRUE,TRUE,F,32,0,0,0
7573,19,onomatopoeic,familiar,e1,0.7341772151898734,1267,T,fam,F,32,fam,cow,TRUE,TRUE,TRUE,F,32,0,0,0
7573,19,vocalization,disambiguation,e1,0.45569620253164556,633,D,nov,F,32,fam,pangolin,TRUE,TRUE,TRUE,F,32,0,0,0
7573,2,name,familiar,e1,0.8588235294117647,400,D,fam,F,32,fam,horse,TRUE,TRUE,TRUE,F,32,0,0,0
7573,2,vocalization,familiar,e1,0.6744186046511628,933,D,fam,F,32,fam,horse,TRUE,TRUE,TRUE,F,32,0,0,0
7573,20,vocalization,familiar,e1,0.7325581395348837,767,D,fam,F,32,fam,sheep,TRUE,TRUE,TRUE,F,32,0,0,0
7573,21,vocalization,familiar,e1,1,NA,T,fam,F,32,nov,cow,NA,NA,TRUE,F,32,0,0,0
7573,22,name,disambiguation,e1,1,NA,T,nov,F,32,fam,pangolin,NA,NA,TRUE,F,32,0,0,0
7573,23,name,familiar,e1,0.44047619047619047,0,T,fam,F,32,nov,cow,TRUE,FALSE,TRUE,F,32,0,0,0
7573,23,vocalization,familiar,e1,0.8,0,T,fam,F,32,nov,horse,TRUE,FALSE,TRUE,F,32,0,0,0
7573,24,name,disambiguation,e1,0.5373134328358209,200,T,nov,F,32,fam,tapir,TRUE,TRUE,TRUE,F,32,0,0,0
7573,24,vocalization,disambiguation,e1,0.03225806451612903,867,T,nov,F,32,fam,pangolin,TRUE,TRUE,FALSE,F,32,0,0,0
7573,25,name,familiar,e1,0.8023255813953488,567,D,fam,F,32,nov,horse,TRUE,TRUE,TRUE,F,32,0,0,0
7573,25,vocalization,familiar,e1,0.3670886075949367,500,D,fam,F,32,fam,sheep,TRUE,TRUE,TRUE,F,32,0,0,0
7573,26,vocalization,familiar,e1,0.75,700,D,fam,F,32,nov,cow,TRUE,TRUE,TRUE,F,32,0,0,0
7573,27,vocalization,disambiguation,e1,1,NA,T,nov,F,32,fam,tapir,NA,NA,TRUE,F,32,0,0,0
7573,28,vocalization,familiar,e1,0.6101694915254238,767,D,fam,F,32,fam,dog,TRUE,TRUE,TRUE,F,32,0,0,0
7573,3,name,familiar,e1,0.788235294117647,600,D,fam,F,32,fam,sheep,TRUE,TRUE,TRUE,F,32,0,0,0
7573,3,vocalization,familiar,e1,0.6,1167,D,fam,F,32,nov,sheep,TRUE,TRUE,TRUE,F,32,0,0,0
7573,4,name,familiar,e1,0.24705882352941178,2200,D,fam,F,32,fam,cow,TRUE,TRUE,TRUE,F,32,0,0,0
7573,4,vocalization,disambiguation,e1,0.9759036144578314,67,D,nov,F,32,fam,pangolin,TRUE,TRUE,TRUE,F,32,0,0,0
7573,5,name,familiar,e1,1,NA,T,fam,F,32,fam,dog,NA,NA,TRUE,F,32,0,0,0
7573,5,vocalization,familiar,e1,0.6265060240963856,300,T,fam,F,32,fam,dog,TRUE,TRUE,TRUE,F,32,0,0,0
7573,6,vocalization,familiar,e1,0.32558139534883723,1967,D,fam,F,32,nov,horse,TRUE,TRUE,TRUE,F,32,0,0,0
7573,7,onomatopoeic,familiar,e1,0.611764705882353,1133,D,fam,F,32,fam,horse,TRUE,TRUE,TRUE,F,32,0,0,0
7573,7,vocalization,disambiguation,e1,0.5,1467,T,nov,F,32,fam,tapir,TRUE,TRUE,TRUE,F,32,0,0,0
7573,8,onomatopoeic,familiar,e1,0.813953488372093,533,D,fam,F,32,fam,cow,TRUE,TRUE,TRUE,F,32,0,0,0
7573,9,onomatopoeic,familiar,e1,0.8372093023255814,467,D,fam,F,32,fam,dog,TRUE,TRUE,TRUE,F,32,0,0,0
7573,9,vocalization,familiar,e1,1,NA,T,fam,F,32,nov,dog,NA,NA,TRUE,F,32,0,0,0
7633,10,onomatopoeic,familiar,e1,0.6282051282051282,367,T,fam,F,30,fam,sheep,TRUE,TRUE,TRUE,NA,NA,NA,NA,NA
7633,10,vocalization,disambiguation,e1,0.7341772151898734,67,D,nov,F,30,fam,tapir,TRUE,TRUE,TRUE,NA,NA,NA,NA,NA
7633,11,name,disambiguation,e1,0.9647058823529412,100,D,nov,F,30,fam,pangolin,TRUE,TRUE,TRUE,NA,NA,NA,NA,NA
7633,11,vocalization,familiar,e1,0.7719298245614035,0,T,fam,F,30,fam,cow,FALSE,FALSE,FALSE,NA,NA,NA,NA,NA
7633,12,name,familiar,e1,0.926829268292683,200,D,fam,F,30,nov,sheep,TRUE,TRUE,TRUE,NA,NA,NA,NA,NA
7633,12,vocalization,disambiguation,e1,0.6097560975609756,433,T,nov,F,30,fam,pangolin,TRUE,TRUE,TRUE,NA,NA,NA,NA,NA
7633,13,vocalization,familiar,e1,0.7108433734939759,800,D,fam,F,30,fam,cow,TRUE,TRUE,TRUE,NA,NA,NA,NA,NA
7633,14,vocalization,familiar,e1,0.6428571428571429,1833,T,fam,F,30,nov,sheep,TRUE,TRUE,TRUE,NA,NA,NA,NA,NA
7633,16,vocalization,disambiguation,e1,0.43037974683544306,1200,D,nov,F,30,fam,pangolin,TRUE,TRUE,TRUE,NA,NA,NA,NA,NA
7633,17,vocalization,familiar,e1,0.5,0,T,fam,F,30,nov,dog,FALSE,FALSE,FALSE,NA,NA,NA,NA,NA
7633,18,onomatopoeic,familiar,e1,0.8571428571428571,400,D,fam,F,30,fam,dog,TRUE,TRUE,TRUE,NA,NA,NA,NA,NA
7633,19,onomatopoeic,familiar,e1,0.5121951219512195,1433,T,fam,F,30,fam,cow,TRUE,TRUE,TRUE,NA,NA,NA,NA,NA
7633,2,name,familiar,e1,0.225,600,T,fam,F,30,fam,horse,TRUE,TRUE,TRUE,NA,NA,NA,NA,NA
7633,2,vocalization,familiar,e1,0.32558139534883723,1967,D,fam,F,30,fam,horse,TRUE,TRUE,TRUE,NA,NA,NA,NA,NA
7633,20,onomatopoeic,familiar,e1,0.6309523809523809,1800,T,fam,F,30,fam,horse,TRUE,TRUE,TRUE,NA,NA,NA,NA,NA
7633,20,vocalization,familiar,e1,0.7021276595744681,0,T,fam,F,30,fam,sheep,FALSE,FALSE,FALSE,NA,NA,NA,NA,NA
7633,21,vocalization,familiar,e1,0.4098360655737705,133,T,fam,F,30,nov,cow,TRUE,TRUE,TRUE,NA,NA,NA,NA,NA
7633,22,name,disambiguation,e1,1,NA,T,nov,F,30,fam,tapir,NA,NA,TRUE,NA,NA,NA,NA,NA
7633,23,vocalization,familiar,e1,0.9361702127659575,100,D,fam,F,30,nov,horse,TRUE,TRUE,FALSE,NA,NA,NA,NA,NA
7633,24,vocalization,disambiguation,e1,0.5061728395061729,333,T,nov,F,30,fam,tapir,TRUE,TRUE,TRUE,NA,NA,NA,NA,NA
7633,25,name,familiar,e1,0.8333333333333334,467,D,fam,F,30,nov,horse,TRUE,TRUE,TRUE,NA,NA,NA,NA,NA
7633,25,vocalization,familiar,e1,0.32142857142857145,900,T,fam,F,30,fam,sheep,TRUE,TRUE,TRUE,NA,NA,NA,NA,NA
7633,26,name,disambiguation,e1,0.6527777777777778,1167,T,nov,F,30,fam,tapir,TRUE,TRUE,TRUE,NA,NA,NA,NA,NA
7633,26,vocalization,familiar,e1,0.6341463414634146,0,T,fam,F,30,nov,cow,TRUE,FALSE,TRUE,NA,NA,NA,NA,NA
7633,27,vocalization,disambiguation,e1,0.7073170731707317,100,T,nov,F,30,fam,pangolin,TRUE,TRUE,TRUE,NA,NA,NA,NA,NA
7633,28,vocalization,familiar,e1,0.8117647058823529,533,D,fam,F,30,fam,dog,TRUE,TRUE,TRUE,NA,NA,NA,NA,NA
7633,3,name,familiar,e1,0.620253164556962,1033,D,fam,F,30,fam,sheep,TRUE,TRUE,TRUE,NA,NA,NA,NA,NA
7633,3,vocalization,familiar,e1,1,NA,T,fam,F,30,nov,sheep,NA,NA,TRUE,NA,NA,NA,NA,NA
7633,4,name,familiar,e1,0.5555555555555556,1233,T,fam,F,30,fam,cow,TRUE,TRUE,TRUE,NA,NA,NA,NA,NA
7633,4,vocalization,disambiguation,e1,0.45454545454545453,700,D,nov,F,30,fam,tapir,TRUE,TRUE,TRUE,NA,NA,NA,NA,NA
7633,5,name,familiar,e1,0.9285714285714286,NA,T,fam,F,30,fam,dog,NA,NA,TRUE,NA,NA,NA,NA,NA
7633,5,vocalization,familiar,e1,0.575,1467,T,fam,F,30,fam,dog,TRUE,TRUE,TRUE,NA,NA,NA,NA,NA
7633,6,vocalization,familiar,e1,0.6125,767,D,fam,F,30,nov,horse,TRUE,TRUE,TRUE,NA,NA,NA,NA,NA
7633,7,onomatopoeic,familiar,e1,0.573170731707317,367,T,fam,F,30,fam,horse,TRUE,TRUE,TRUE,NA,NA,NA,NA,NA
7633,7,vocalization,disambiguation,e1,0.6666666666666666,533,T,nov,F,30,fam,pangolin,TRUE,TRUE,TRUE,NA,NA,NA,NA,NA
7633,8,onomatopoeic,familiar,e1,1,NA,T,fam,F,30,fam,cow,NA,NA,TRUE,NA,NA,NA,NA,NA
7633,9,onomatopoeic,familiar,e1,1,NA,T,fam,F,30,fam,dog,NA,NA,TRUE,NA,NA,NA,NA,NA
7633,9,vocalization,familiar,e1,0.7407407407407407,1100,T,fam,F,30,nov,dog,TRUE,TRUE,TRUE,NA,NA,NA,NA,NA
7669,10,onomatopoeic,familiar,e1,0.2891566265060241,2033,D,fam,M,32,fam,sheep,TRUE,TRUE,TRUE,M,31,431,41,12
7669,10,vocalization,disambiguation,e1,0.6470588235294118,1e3,D,nov,M,32,fam,tapir,TRUE,TRUE,TRUE,M,31,431,41,12
7669,11,name,disambiguation,e1,0.35365853658536583,1800,D,nov,M,32,fam,tapir,TRUE,TRUE,TRUE,M,31,431,41,12
7669,11,vocalization,familiar,e1,1,0,T,fam,M,32,fam,cow,TRUE,FALSE,TRUE,M,31,431,41,12
7669,12,name,familiar,e1,0,0,T,fam,M,32,nov,sheep,FALSE,FALSE,FALSE,M,31,431,41,12
7669,12,vocalization,disambiguation,e1,1,NA,T,nov,M,32,fam,pangolin,NA,NA,TRUE,M,31,431,41,12
7669,13,name,disambiguation,e1,0.6794871794871795,100,T,nov,M,32,fam,pangolin,TRUE,TRUE,TRUE,M,31,431,41,12
7669,13,vocalization,familiar,e1,0,NA,D,fam,M,32,fam,cow,NA,NA,TRUE,M,31,431,41,12
7669,14,name,familiar,e1,1,NA,T,fam,M,32,nov,dog,NA,NA,TRUE,M,31,431,41,12
7669,14,vocalization,familiar,e1,0,NA,D,fam,M,32,nov,sheep,NA,NA,TRUE,M,31,431,41,12
7669,15,name,disambiguation,e1,1,NA,T,nov,M,32,fam,tapir,NA,NA,TRUE,M,31,431,41,12
